File: Laboratorio 2/Dados Experimentais/Verificar Equacao de Randles Sevcik/CV_20 mV_Ferri_ferro.txt
Potential applied (V);Time (s);WE(1).Current (A);WE(1).Potential (V);Scan;Index;Q+;Q-
-0.196838;86.5676;-4.39087e-05;-0.196686;2;1501;;
-0.194702;86.6744;-4.22546e-05;-0.19455;2;1503;;
-0.192566;86.7812;-4.09424e-05;-0.192444;2;1505;;
-0.19043;86.888;-3.9856e-05;-0.190277;2;1507;;
-0.188293;86.9949;-3.89008e-05;-0.188202;2;1509;;
-0.186157;87.1017;-3.80615e-05;-0.186035;2;1511;;
-0.184021;87.2085;-3.73413e-05;-0.183899;2;1513;;
-0.181885;87.3153;-3.66333e-05;-0.181732;2;1515;;
-0.179749;87.4221;-3.5968e-05;-0.179626;2;1517;;
-0.177612;87.5289;-3.53851e-05;-0.17746;2;1519;;
-0.175476;87.6357;-3.48206e-05;-0.175415;2;1521;;
-0.17334;87.7425;-3.43109e-05;-0.173187;2;1523;;
-0.171204;87.8493;-3.38348e-05;-0.171051;2;1525;;
-0.169067;87.9562;-3.33557e-05;-0.168945;2;1527;;
-0.166931;88.063;-3.29254e-05;-0.16684;2;1529;;
-0.164795;88.1698;-3.25165e-05;-0.164673;2;1531;;
-0.162659;88.2766;-3.21014e-05;-0.162506;2;1533;;
-0.160522;88.3834;-3.17413e-05;-0.16037;2;1535;;
-0.158386;88.4902;-3.13568e-05;-0.158234;2;1537;;
-0.15625;88.597;-3.10394e-05;-0.156128;2;1539;;
-0.154114;88.7038;-3.0658e-05;-0.153992;2;1541;;
-0.151978;88.8107;-3.03192e-05;-0.151886;2;1543;;
-0.149841;88.9175;-3.00262e-05;-0.149719;2;1545;;
-0.147705;89.0243;-2.9715e-05;-0.147583;2;1547;;
-0.145569;89.1311;-2.94281e-05;-0.145477;2;1549;;
-0.143433;89.2379;-2.91046e-05;-0.143311;2;1551;;
-0.141296;89.3447;-2.88574e-05;-0.141174;2;1553;;
-0.13916;89.4515;-2.85889e-05;-0.139069;2;1555;;
-0.137024;89.5583;-2.83264e-05;-0.136902;2;1557;;
-0.134888;89.6652;-2.80701e-05;-0.134766;2;1559;;
-0.132751;89.772;-2.78137e-05;-0.13269;2;1561;;
-0.130615;89.8788;-2.75787e-05;-0.130524;2;1563;;
-0.128479;89.9856;-2.73468e-05;-0.128357;2;1565;;
-0.126343;90.0924;-2.7121e-05;-0.126251;2;1567;;
-0.124207;90.1992;-2.68707e-05;-0.124115;2;1569;;
-0.12207;90.306;-2.66541e-05;-0.121948;2;1571;;
-0.119934;90.4128;-2.64496e-05;-0.119843;2;1573;;
-0.117798;90.5196;-2.62299e-05;-0.117737;2;1575;;
-0.115662;90.6265;-2.60162e-05;-0.11557;2;1577;;
-0.113525;90.7333;-2.58209e-05;-0.113373;2;1579;;
-0.111389;90.8401;-2.56073e-05;-0.111267;2;1581;;
-0.109253;90.9469;-2.54028e-05;-0.109161;2;1583;;
-0.107117;91.0537;-2.52014e-05;-0.107056;2;1585;;
-0.10498;91.1605;-2.50122e-05;-0.104919;2;1587;;
-0.102844;91.2673;-2.48383e-05;-0.102844;2;1589;;
-0.100708;91.3741;-2.46613e-05;-0.100677;2;1591;;
-0.0985718;91.481;-2.4469e-05;-0.0985107;2;1593;;
-0.0964355;91.5878;-2.42767e-05;-0.096344;2;1595;;
-0.0942993;91.6946;-2.40509e-05;-0.0942078;2;1597;;
-0.0921631;91.8014;-2.39014e-05;-0.092041;2;1599;;
-0.0900269;91.9082;-2.37152e-05;-0.0899658;2;1601;;
-0.0878906;92.015;-2.35535e-05;-0.0877991;2;1603;;
-0.0857544;92.1218;-2.33887e-05;-0.0857239;2;1605;;
-0.0836182;92.2286;-2.31934e-05;-0.0835876;2;1607;;
-0.0814819;92.3355;-2.30042e-05;-0.0814514;2;1609;;
-0.0793457;92.4423;-2.2821e-05;-0.0792847;2;1611;;
-0.0772095;92.5491;-2.26501e-05;-0.0771484;2;1613;;
-0.0750732;92.6559;-2.25098e-05;-0.0749817;2;1615;;
-0.072937;92.7627;-2.23724e-05;-0.0729065;2;1617;;
-0.0708008;92.8695;-2.22076e-05;-0.0706787;2;1619;;
-0.0686646;92.9763;-2.20215e-05;-0.068573;2;1621;;
-0.0665283;93.0831;-2.18719e-05;-0.0664673;2;1623;;
-0.0643921;93.1899;-2.17072e-05;-0.0643616;2;1625;;
-0.0622559;93.2968;-2.15393e-05;-0.0621643;2;1627;;
-0.0601196;93.4036;-2.14111e-05;-0.0600586;2;1629;;
-0.0579834;93.5104;-2.12463e-05;-0.0579529;2;1631;;
-0.0558472;93.6172;-2.11243e-05;-0.0558167;2;1633;;
-0.0537109;93.724;-2.09747e-05;-0.0536499;2;1635;;
-0.0515747;93.8308;-2.08221e-05;-0.0515442;2;1637;;
-0.0494385;93.9376;-2.06818e-05;-0.0494049;2;1639;;
-0.0473022;94.0444;-2.05444e-05;-0.0472717;2;1641;;
-0.045166;94.1513;-2.03888e-05;-0.0451416;2;1643;;
-0.0430298;94.2581;-2.02423e-05;-0.0429932;2;1645;;
-0.0408936;94.3649;-2.00958e-05;-0.0408691;2;1647;;
-0.0387573;94.4717;-1.99738e-05;-0.0387238;2;1649;;
-0.0366211;94.5785;-1.98395e-05;-0.0365967;2;1651;;
-0.0344849;94.6853;-1.96472e-05;-0.0344574;2;1653;;
-0.0323486;94.7921;-1.95038e-05;-0.0323181;2;1655;;
-0.0302124;94.8989;-1.9397e-05;-0.030191;2;1657;;
-0.0280762;95.0058;-1.9223e-05;-0.0280457;2;1659;;
-0.0259399;95.1126;-1.90765e-05;-0.0259155;2;1661;;
-0.0238037;95.2194;-1.89545e-05;-0.0237793;2;1663;;
-0.0216675;95.3262;-1.88141e-05;-0.0216492;2;1665;;
-0.01953125;95.433;-1.88171e-05;-0.0195221;2;1667;;
-0.017395;95.5398;-1.84021e-05;-0.0173615;2;1669;;
-0.0152588;95.6466;-1.84509e-05;-0.0152405;2;1671;;
-0.0131226;95.7534;-1.83807e-05;-0.0131104;2;1673;;
-0.0109863;95.8602;-1.8158e-05;-0.0109528;2;1675;;
-0.0088501;95.9671;-1.80267e-05;-0.00883179;2;1677;;
-0.00671387;96.0739;-1.78772e-05;-0.00670471;2;1679;;
-0.00457764;96.1807;-1.77002e-05;-0.00455627;2;1681;;
-0.00244141;96.2875;-1.76697e-05;-0.00244141;2;1683;;
-0.000305176;96.3943;-1.75354e-05;-0.000299072;2;1685;;
0.00183105;96.5011;-1.74194e-05;0.00186768;2;1687;;
0.00396729;96.6079;-1.72699e-05;0.0039917;2;1689;;
0.00610352;96.7147;-1.71814e-05;0.00612488;2;1691;;
0.00823975;96.8216;-1.69891e-05;0.00827332;2;1693;;
0.010376;96.9284;-1.68182e-05;0.0104065;2;1695;;
0.0125122;97.0352;-1.66748e-05;0.0125488;2;1697;;
0.0146484;97.142;-1.66962e-05;0.0146759;2;1699;;
0.0167847;97.2488;-1.65253e-05;0.016803;2;1701;;
0.0189209;97.3556;-1.64734e-05;0.0189667;2;1703;;
0.0210571;97.4624;-1.6272e-05;0.0210907;2;1705;;
0.0231934;97.5692;-1.62109e-05;0.0232483;2;1707;;
0.0253296;97.6761;-1.60889e-05;0.0253723;2;1709;;
0.0274658;97.7829;-1.60187e-05;0.0275055;2;1711;;
0.0296021;97.8897;-1.59119e-05;0.0296448;2;1713;;
0.0317383;97.9965;-1.58295e-05;0.0317871;2;1715;;
0.0338745;98.1033;-1.57104e-05;0.0339325;2;1717;;
0.0360107;98.2101;-1.55884e-05;0.0360687;2;1719;;
0.038147;98.3169;-1.54663e-05;0.0381958;2;1721;;
0.0402832;98.4237;-1.5448e-05;0.0403229;2;1723;;
0.0424194;98.5305;-1.52344e-05;0.0424744;2;1725;;
0.0445557;98.6374;-1.50421e-05;0.0446045;2;1727;;
0.0466919;98.7442;-1.48285e-05;0.0467651;2;1729;;
0.0488281;98.851;-1.48193e-05;0.0488922;2;1731;;
0.0509644;98.9578;-1.47552e-05;0.0509338;2;1733;;
0.0531006;99.0646;-1.47736e-05;0.0531311;2;1735;;
0.0552368;99.1714;-1.44562e-05;0.0552673;2;1737;;
0.057373;99.2782;-1.43738e-05;0.0574036;2;1739;;
0.0595093;99.385;-1.42517e-05;0.0595703;2;1741;;
0.0616455;99.4919;-1.4093e-05;0.061676;2;1743;;
0.0637817;99.5987;-1.39557e-05;0.0637817;2;1745;;
0.065918;99.7055;-1.38062e-05;0.0659485;2;1747;;
0.0680542;99.8123;-1.36139e-05;0.0680847;2;1749;;
0.0701904;99.9191;-1.34399e-05;0.0701599;2;1751;;
0.0723267;100.026;-1.32385e-05;0.0723877;2;1753;;
0.0744629;100.133;-1.30829e-05;0.0744629;2;1755;;
0.0765991;100.24;-1.29028e-05;0.0766602;2;1757;;
0.0787354;100.346;-1.26373e-05;0.0787659;2;1759;;
0.0808716;100.453;-1.23993e-05;0.0809021;2;1761;;
0.0830078;100.56;-1.21796e-05;0.0830078;2;1763;;
0.085144;100.667;-1.21948e-05;0.0851746;2;1765;;
0.0872803;100.774;-1.16333e-05;0.0873108;2;1767;;
0.0894165;100.88;-1.13678e-05;0.089447;2;1769;;
0.0915527;100.987;-1.12366e-05;0.0915833;2;1771;;
0.093689;101.094;-1.07422e-05;0.09375;2;1773;;
0.0958252;101.201;-1.04431e-05;0.0958557;2;1775;;
0.0979614;101.308;-1.01166e-05;0.0979919;2;1777;;
0.100098;101.414;-9.8053e-06;0.100128;2;1779;;
0.102234;101.521;-9.42688e-06;0.102203;2;1781;;
0.10437;101.628;-9.01489e-06;0.104431;2;1783;;
0.106506;101.735;-8.58765e-06;0.106567;2;1785;;
0.108643;101.842;-8.16345e-06;0.108704;2;1787;;
0.110779;101.949;-7.61414e-06;0.110809;2;1789;;
0.112915;102.055;-7.09229e-06;0.112976;2;1791;;
0.115051;102.162;-6.54602e-06;0.115082;2;1793;;
0.1171875;102.269;-6.00891e-06;0.1171875;2;1795;;
0.119324;102.376;-5.40161e-06;0.119354;2;1797;;
0.12146;102.483;-4.7699e-06;0.12149;2;1799;;
0.123596;102.589;-4.07013e-06;0.123627;2;1801;;
0.125732;102.696;-3.38013e-06;0.125854;2;1803;;
0.127869;102.803;-2.6416e-06;0.127869;2;1805;;
0.130005;102.91;-1.84021e-06;0.130035;2;1807;;
0.132141;103.017;-1.0144e-06;0.132172;2;1809;;
0.134277;103.123;-1.75781e-07;0.134338;2;1811;;
0.136414;103.23;7.48291e-07;0.136383;2;1813;;
0.13855;103.337;1.66199e-06;0.13858;2;1815;;
0.140686;103.444;2.70996e-06;0.140686;2;1817;;
0.142822;103.551;3.72986e-06;0.142731;2;1819;;
0.144958;103.658;4.88281e-06;0.144928;2;1821;;
0.147095;103.764;6.03027e-06;0.147034;2;1823;;
0.149231;103.871;7.27234e-06;0.14917;2;1825;;
0.151367;103.978;8.55713e-06;0.151276;2;1827;;
0.153503;104.085;9.86633e-06;0.153381;2;1829;;
0.15564;104.192;1.11786e-05;0.155487;2;1831;;
0.157776;104.298;1.25275e-05;0.157684;2;1833;;
0.159912;104.405;1.38184e-05;0.15976;2;1835;;
0.162048;104.512;1.51764e-05;0.161835;2;1837;;
0.164185;104.619;1.6449e-05;0.164032;2;1839;;
0.166321;104.726;1.76636e-05;0.166107;2;1841;;
0.168457;104.832;1.89087e-05;0.168274;2;1843;;
0.170593;104.939;2.00378e-05;0.17038;2;1845;;
0.172729;105.046;2.11304e-05;0.172485;2;1847;;
0.174866;105.153;2.21619e-05;0.174652;2;1849;;
0.177002;105.26;2.31415e-05;0.176758;2;1851;;
0.179138;105.367;2.40784e-05;0.178894;2;1853;;
0.181274;105.473;2.49451e-05;0.180969;2;1855;;
0.183411;105.58;2.57721e-05;0.183136;2;1857;;
0.185547;105.687;2.64893e-05;0.185211;2;1859;;
0.187683;105.794;2.72339e-05;0.187378;2;1861;;
0.189819;105.901;2.79755e-05;0.189484;2;1863;;
0.191956;106.007;2.86072e-05;0.191589;2;1865;;
0.194092;106.114;2.91809e-05;0.193756;2;1867;;
0.196228;106.221;2.97058e-05;0.195801;2;1869;;
0.198364;106.328;3.02094e-05;0.197998;2;1871;;
0.2005;106.435;3.0719e-05;0.200531;2;1873;;
0.202637;106.541;3.11005e-05;0.202606;2;1875;;
0.204773;106.648;3.14697e-05;0.204803;2;1877;;
0.206909;106.755;3.17352e-05;0.206879;2;1879;;
0.209045;106.862;3.19885e-05;0.209076;2;1881;;
0.211182;106.969;3.21991e-05;0.211121;2;1883;;
0.213318;107.076;3.23853e-05;0.213379;2;1885;;
0.215454;107.182;3.25165e-05;0.215485;2;1887;;
0.21759;107.289;3.26294e-05;0.21759;2;1889;;
0.219727;107.396;3.26996e-05;0.219666;2;1891;;
0.221863;107.503;3.27545e-05;0.221863;2;1893;;
0.223999;107.61;3.27362e-05;0.224091;2;1895;;
0.226135;107.716;3.26996e-05;0.226166;2;1897;;
0.228271;107.823;3.24707e-05;0.228271;2;1899;;
0.230408;107.93;3.2547e-05;0.230408;2;1901;;
0.232544;108.037;3.24524e-05;0.232574;2;1903;;
0.23468;108.144;3.22998e-05;0.234711;2;1905;;
0.236816;108.25;3.22113e-05;0.236816;2;1907;;
0.238953;108.357;3.20648e-05;0.238983;2;1909;;
0.241089;108.464;3.19061e-05;0.241058;2;1911;;
0.243225;108.571;3.17322e-05;0.243225;2;1913;;
0.245361;108.678;3.15521e-05;0.245361;2;1915;;
0.247498;108.785;3.1366e-05;0.247498;2;1917;;
0.249634;108.891;3.11279e-05;0.249725;2;1919;;
0.25177;108.998;3.09326e-05;0.251801;2;1921;;
0.253906;109.105;3.07068e-05;0.253967;2;1923;;
0.256042;109.212;3.0481e-05;0.256012;2;1925;;
0.258179;109.319;3.02826e-05;0.258148;2;1927;;
0.260315;109.425;3.00598e-05;0.260345;2;1929;;
0.262451;109.532;2.98157e-05;0.262421;2;1931;;
0.264587;109.639;2.95654e-05;0.264587;2;1933;;
0.266724;109.746;2.93335e-05;0.266754;2;1935;;
0.26886;109.853;2.91107e-05;0.26886;2;1937;;
0.270996;109.959;2.8894e-05;0.270996;2;1939;;
0.273132;110.066;2.86682e-05;0.273193;2;1941;;
0.275269;110.173;2.8476e-05;0.275299;2;1943;;
0.277405;110.28;2.82227e-05;0.277466;2;1945;;
0.279541;110.387;2.80212e-05;0.27951;2;1947;;
0.281677;110.493;2.78076e-05;0.281708;2;1949;;
0.283813;110.6;2.76062e-05;0.283813;2;1951;;
0.28595;110.707;2.73956e-05;0.28595;2;1953;;
0.288086;110.814;2.71606e-05;0.288147;2;1955;;
0.290222;110.921;2.69775e-05;0.290253;2;1957;;
0.292358;111.028;2.67792e-05;0.292358;2;1959;;
0.294495;111.134;2.66174e-05;0.294495;2;1961;;
0.296631;111.241;2.64008e-05;0.296692;2;1963;;
0.298767;111.348;2.62299e-05;0.298828;2;1965;;
0.300903;111.455;2.60529e-05;0.300934;2;1967;;
0.30304;111.562;2.59186e-05;0.303101;2;1969;;
0.305176;111.668;2.57294e-05;0.305206;2;1971;;
0.307312;111.775;2.55676e-05;0.307343;2;1973;;
0.309448;111.882;2.54089e-05;0.309418;2;1975;;
0.311584;111.989;2.52869e-05;0.311584;2;1977;;
0.313721;112.096;2.51434e-05;0.313843;2;1979;;
0.315857;112.202;2.50153e-05;0.315887;2;1981;;
0.317993;112.309;2.48474e-05;0.317993;2;1983;;
0.320129;112.416;2.47162e-05;0.320221;2;1985;;
0.322266;112.523;2.46033e-05;0.322357;2;1987;;
0.324402;112.63;2.44629e-05;0.324524;2;1989;;
0.326538;112.737;2.43561e-05;0.32663;2;1991;;
0.328674;112.843;2.42645e-05;0.328766;2;1993;;
0.330811;112.95;2.41302e-05;0.330841;2;1995;;
0.332947;113.057;2.3999e-05;0.333069;2;1997;;
0.335083;113.164;2.38861e-05;0.335175;2;1999;;
0.337219;113.271;2.37762e-05;0.33725;2;2001;;
0.339355;113.377;2.36786e-05;0.339417;2;2003;;
0.341492;113.484;2.35657e-05;0.341614;2;2005;;
0.343628;113.591;2.3468e-05;0.343719;2;2007;;
0.345764;113.698;2.34131e-05;0.345825;2;2009;;
0.3479;113.805;2.33093e-05;0.347961;2;2011;;
0.350037;113.911;2.31964e-05;0.350098;2;2013;;
0.352173;114.018;2.31262e-05;0.352173;2;2015;;
0.354309;114.125;2.30469e-05;0.35437;2;2017;;
0.356445;114.232;2.29706e-05;0.356506;2;2019;;
0.358582;114.339;2.29034e-05;0.358643;2;2021;;
0.360718;114.446;2.28455e-05;0.360779;2;2023;;
0.362854;114.552;2.27661e-05;0.362885;2;2025;;
0.36499;114.659;2.26715e-05;0.365051;2;2027;;
0.367126;114.766;2.26135e-05;0.367218;2;2029;;
0.369263;114.873;2.2583e-05;0.369324;2;2031;;
0.371399;114.98;2.25311e-05;0.37146;2;2033;;
0.373535;115.086;2.2467e-05;0.373657;2;2035;;
0.375671;115.193;2.23999e-05;0.375793;2;2037;;
0.377808;115.3;2.23297e-05;0.377869;2;2039;;
0.379944;115.407;2.22839e-05;0.380005;2;2041;;
0.38208;115.514;2.22504e-05;0.382172;2;2043;;
0.384216;115.62;2.21924e-05;0.384277;2;2045;;
0.386353;115.727;2.21405e-05;0.386414;2;2047;;
0.388489;115.834;2.21069e-05;0.388611;2;2049;;
0.390625;115.941;2.20734e-05;0.390717;2;2051;;
0.392761;116.048;2.20367e-05;0.392822;2;2053;;
0.394897;116.155;2.20367e-05;0.39502;2;2055;;
0.397034;116.261;2.19727e-05;0.397156;2;2057;;
0.39917;116.368;2.19543e-05;0.399292;2;2059;;
0.401306;116.475;2.19391e-05;0.401398;2;2061;;
0.403442;116.582;2.19818e-05;0.403564;2;2063;;
0.405579;116.689;2.19666e-05;0.405701;2;2065;;
0.407715;116.795;2.18903e-05;0.407776;2;2067;;
0.409851;116.902;2.18597e-05;0.409943;2;2069;;
0.411987;117.009;2.18231e-05;0.412048;2;2071;;
0.414124;117.116;2.1814e-05;0.414215;2;2073;;
0.41626;117.223;2.17804e-05;0.416351;2;2075;;
0.418396;117.329;2.17834e-05;0.418488;2;2077;;
0.420532;117.436;2.17712e-05;0.420654;2;2079;;
0.422668;117.543;2.1756e-05;0.422729;2;2081;;
0.424805;117.65;2.17438e-05;0.424896;2;2083;;
0.426941;117.757;2.17651e-05;0.427002;2;2085;;
0.429077;117.864;2.17407e-05;0.429199;2;2087;;
0.431213;117.97;2.1698e-05;0.431274;2;2089;;
0.43335;118.077;2.17102e-05;0.433441;2;2091;;
0.435486;118.184;2.16675e-05;0.435577;2;2093;;
0.437622;118.291;2.17377e-05;0.437744;2;2095;;
0.439758;118.398;2.1698e-05;0.43985;2;2097;;
0.441895;118.504;2.16888e-05;0.441986;2;2099;;
0.444031;118.611;2.17346e-05;0.444061;2;2101;;
0.446167;118.718;2.17285e-05;0.446259;2;2103;;
0.448303;118.825;2.17224e-05;0.448425;2;2105;;
0.450439;118.932;2.17682e-05;0.450531;2;2107;;
0.452576;119.038;2.17651e-05;0.452667;2;2109;;
0.454712;119.145;2.17529e-05;0.454803;2;2111;;
0.456848;119.252;2.17804e-05;0.45694;2;2113;;
0.458984;119.359;2.1756e-05;0.459076;2;2115;;
0.461121;119.466;2.17865e-05;0.461212;2;2117;;
0.463257;119.573;2.19391e-05;0.463379;2;2119;;
0.465393;119.679;2.18506e-05;0.465454;2;2121;;
0.467529;119.786;2.19299e-05;0.467621;2;2123;;
0.469666;119.893;2.19055e-05;0.469757;2;2125;;
0.471802;120;2.18811e-05;0.471924;2;2127;;
0.473938;120.107;2.20886e-05;0.473999;2;2129;;
0.476074;120.213;2.20459e-05;0.476166;2;2131;;
0.47821;120.32;2.20673e-05;0.478363;2;2133;;
0.480347;120.427;2.20856e-05;0.480438;2;2135;;
0.482483;120.534;2.20886e-05;0.482605;2;2137;;
0.484619;120.641;2.21405e-05;0.484741;2;2139;;
0.486755;120.747;2.21283e-05;0.486877;2;2141;;
0.488892;120.854;2.21466e-05;0.489014;2;2143;;
0.491028;120.961;2.22412e-05;0.49115;2;2145;;
0.493164;121.068;2.23297e-05;0.493225;2;2147;;
0.4953;121.175;2.2287e-05;0.495453;2;2149;;
0.497437;121.282;2.23083e-05;0.497559;2;2151;;
0.499573;121.388;2.23389e-05;0.499664;2;2153;;
0.501709;121.495;2.2403e-05;0.501801;2;2155;;
0.503845;121.602;2.2467e-05;0.503937;2;2157;;
0.505981;121.709;2.25342e-05;0.506073;2;2159;;
0.508118;121.816;2.2583e-05;0.50824;2;2161;;
0.510254;121.922;2.26624e-05;0.510315;2;2163;;
0.51239;122.029;2.2699e-05;0.512512;2;2165;;
0.514526;122.136;2.27203e-05;0.514648;2;2167;;
0.516663;122.243;2.28027e-05;0.516754;2;2169;;
0.518799;122.35;2.28394e-05;0.518921;2;2171;;
0.520935;122.456;2.2818e-05;0.521057;2;2173;;
0.523071;122.563;2.29401e-05;0.523193;2;2175;;
0.525208;122.67;2.29736e-05;0.525299;2;2177;;
0.527344;122.777;2.30835e-05;0.527496;2;2179;;
0.52948;122.884;2.31384e-05;0.529541;2;2181;;
0.531616;122.99;2.32086e-05;0.531738;2;2183;;
0.533752;123.097;2.33124e-05;0.533875;2;2185;;
0.535889;123.204;2.33521e-05;0.536011;2;2187;;
0.538025;123.311;2.33978e-05;0.538147;2;2189;;
0.540161;123.418;2.34833e-05;0.540283;2;2191;;
0.542297;123.525;2.35748e-05;0.542389;2;2193;;
0.544434;123.631;2.36633e-05;0.544586;2;2195;;
0.54657;123.738;2.37457e-05;0.546661;2;2197;;
0.548706;123.845;2.37885e-05;0.548828;2;2199;;
0.550842;123.952;2.39349e-05;0.550995;2;2201;;
0.552979;124.059;2.40173e-05;0.553131;2;2203;;
0.555115;124.165;2.40997e-05;0.555206;2;2205;;
0.557251;124.272;2.42157e-05;0.557404;2;2207;;
0.559387;124.379;2.43256e-05;0.559479;2;2209;;
0.561523;124.486;2.4408e-05;0.561646;2;2211;;
0.56366;124.593;2.44049e-05;0.563812;2;2213;;
0.565796;124.699;2.46094e-05;0.565887;2;2215;;
0.567932;124.806;2.47528e-05;0.568054;2;2217;;
0.570068;124.913;2.49084e-05;0.57019;2;2219;;
0.572205;125.02;2.5061e-05;0.572327;2;2221;;
0.574341;125.127;2.50885e-05;0.574463;2;2223;;
0.576477;125.234;2.51831e-05;0.57663;2;2225;;
0.578613;125.34;2.53387e-05;0.578735;2;2227;;
0.58075;125.447;2.54761e-05;0.580841;2;2229;;
0.582886;125.554;2.56561e-05;0.583008;2;2231;;
0.585022;125.661;2.57904e-05;0.585144;2;2233;;
0.587158;125.768;2.59827e-05;0.58728;2;2235;;
0.589294;125.874;2.61353e-05;0.589355;2;2237;;
0.591431;125.981;2.63e-05;0.591553;2;2239;;
0.593567;126.088;2.64099e-05;0.593689;2;2241;;
0.595703;126.195;2.65717e-05;0.595856;2;2243;;
0.597839;126.302;2.67181e-05;0.5979;2;2245;;
0.599976;126.408;2.69043e-05;0.600006;2;2247;;
0.597839;126.515;2.47528e-05;0.597992;2;2249;;
0.595703;126.622;2.36053e-05;0.595856;2;2251;;
0.593567;126.729;2.27325e-05;0.593689;2;2253;;
0.591431;126.836;2.19788e-05;0.591583;2;2255;;
0.589294;126.943;2.13715e-05;0.589447;2;2257;;
0.587158;127.049;2.07855e-05;0.58728;2;2259;;
0.585022;127.156;2.02881e-05;0.585083;2;2261;;
0.582886;127.263;1.98456e-05;0.583008;2;2263;;
0.58075;127.37;1.94244e-05;0.580902;2;2265;;
0.578613;127.477;1.90735e-05;0.578705;2;2267;;
0.576477;127.583;1.87317e-05;0.576599;2;2269;;
0.574341;127.69;1.8399e-05;0.574463;2;2271;;
0.572205;127.797;1.81122e-05;0.572327;2;2273;;
0.570068;127.904;1.78223e-05;0.570221;2;2275;;
0.567932;128.011;1.75476e-05;0.568054;2;2277;;
0.565796;128.117;1.73096e-05;0.565887;2;2279;;
0.56366;128.224;1.70898e-05;0.563782;2;2281;;
0.561523;128.331;1.68518e-05;0.561646;2;2283;;
0.559387;128.438;1.66382e-05;0.55954;2;2285;;
0.557251;128.545;1.64551e-05;0.557404;2;2287;;
0.555115;128.652;1.62262e-05;0.555237;2;2289;;
0.552979;128.758;1.60461e-05;0.553131;2;2291;;
0.550842;128.865;1.58722e-05;0.550934;2;2293;;
0.548706;128.972;1.5686e-05;0.548828;2;2295;;
0.54657;129.079;1.55426e-05;0.546661;2;2297;;
0.544434;129.186;1.53687e-05;0.544556;2;2299;;
0.542297;129.292;1.52283e-05;0.542419;2;2301;;
0.540161;129.399;1.5094e-05;0.540283;2;2303;;
0.538025;129.506;1.4917e-05;0.538147;2;2305;;
0.535889;129.613;1.47949e-05;0.53595;2;2307;;
0.533752;129.72;1.46576e-05;0.533813;2;2309;;
0.531616;129.826;1.44897e-05;0.531738;2;2311;;
0.52948;129.933;1.43616e-05;0.529572;2;2313;;
0.527344;130.04;1.42212e-05;0.527405;2;2315;;
0.525208;130.147;1.41296e-05;0.52533;2;2317;;
0.523071;130.254;1.39679e-05;0.523193;2;2319;;
0.520935;130.361;1.38489e-05;0.521057;2;2321;;
0.518799;130.467;1.37177e-05;0.518951;2;2323;;
0.516663;130.574;1.35925e-05;0.516785;2;2325;;
0.514526;130.681;1.35284e-05;0.514648;2;2327;;
0.51239;130.788;1.33545e-05;0.512573;2;2329;;
0.510254;130.895;1.32446e-05;0.510406;2;2331;;
0.508118;131.001;1.31317e-05;0.508179;2;2333;;
0.505981;131.108;1.30096e-05;0.506134;2;2335;;
0.503845;131.215;1.29028e-05;0.503937;2;2337;;
0.501709;131.322;1.27991e-05;0.501801;2;2339;;
0.499573;131.429;1.26953e-05;0.499664;2;2341;;
0.497437;131.535;1.25763e-05;0.497589;2;2343;;
0.4953;131.642;1.24695e-05;0.495392;2;2345;;
0.493164;131.749;1.23749e-05;0.493256;2;2347;;
0.491028;131.856;1.22559e-05;0.49115;2;2349;;
0.488892;131.963;1.21796e-05;0.488983;2;2351;;
0.486755;132.07;1.20544e-05;0.486816;2;2353;;
0.484619;132.176;1.19354e-05;0.484772;2;2355;;
0.482483;132.283;1.18591e-05;0.482635;2;2357;;
0.480347;132.39;1.17645e-05;0.480469;2;2359;;
0.47821;132.497;1.16669e-05;0.478333;2;2361;;
0.476074;132.604;1.15417e-05;0.476166;2;2363;;
0.473938;132.71;1.1441e-05;0.47406;2;2365;;
0.471802;132.817;1.138e-05;0.471893;2;2367;;
0.469666;132.924;1.12823e-05;0.469757;2;2369;;
0.467529;133.031;1.11664e-05;0.467651;2;2371;;
0.465393;133.138;1.11267e-05;0.465515;2;2373;;
0.463257;133.244;1.09528e-05;0.463348;2;2375;;
0.461121;133.351;1.08276e-05;0.461182;2;2377;;
0.458984;133.458;1.07788e-05;0.459076;2;2379;;
0.456848;133.565;1.073e-05;0.456909;2;2381;;
0.454712;133.672;1.05835e-05;0.454803;2;2383;;
0.452576;133.779;1.04919e-05;0.452667;2;2385;;
0.450439;133.885;1.04065e-05;0.450562;2;2387;;
0.448303;133.992;1.03119e-05;0.448425;2;2389;;
0.446167;134.099;1.02203e-05;0.446289;2;2391;;
0.444031;134.206;1.01044e-05;0.444122;2;2393;;
0.441895;134.313;1.00281e-05;0.441956;2;2395;;
0.439758;134.419;9.93347e-06;0.43985;2;2397;;
0.437622;134.526;9.84192e-06;0.437744;2;2399;;
0.435486;134.633;9.70764e-06;0.435455;2;2401;;
0.43335;134.74;9.55505e-06;0.433319;2;2403;;
0.431213;134.847;9.52454e-06;0.431244;2;2405;;
0.429077;134.953;9.43298e-06;0.429047;2;2407;;
0.426941;135.06;9.32007e-06;0.427002;2;2409;;
0.424805;135.167;9.25293e-06;0.424835;2;2411;;
0.422668;135.274;9.15222e-06;0.422729;2;2413;;
0.420532;135.381;9.01794e-06;0.420502;2;2415;;
0.418396;135.488;8.984375E-06;0.418396;2;2417;;
0.41626;135.594;8.87451e-06;0.41629;2;2419;;
0.414124;135.701;8.80432e-06;0.414093;2;2421;;
0.411987;135.808;8.70667e-06;0.412018;2;2423;;
0.409851;135.915;8.61511e-06;0.409882;2;2425;;
0.407715;136.022;8.54797e-06;0.407715;2;2427;;
0.405579;136.128;8.4198e-06;0.405609;2;2429;;
0.403442;136.235;8.37402e-06;0.403503;2;2431;;
0.401306;136.342;8.2489e-06;0.401337;2;2433;;
0.39917;136.449;8.21533e-06;0.39917;2;2435;;
0.397034;136.556;8.06885e-06;0.397064;2;2437;;
0.394897;136.662;7.88574e-06;0.394897;2;2439;;
0.392761;136.769;7.93457e-06;0.392761;2;2441;;
0.390625;136.876;7.70874e-06;0.390625;2;2443;;
0.388489;136.983;7.79419e-06;0.388489;2;2445;;
0.386353;137.09;7.6355e-06;0.386322;2;2447;;
0.384216;137.196;7.60498e-06;0.384308;2;2449;;
0.38208;137.303;7.51953e-06;0.38205;2;2451;;
0.379944;137.41;7.41577e-06;0.379913;2;2453;;
0.377808;137.517;7.36694e-06;0.377808;2;2455;;
0.375671;137.624;7.18079e-06;0.375702;2;2457;;
0.373535;137.731;7.07703e-06;0.373566;2;2459;;
0.371399;137.837;6.99463e-06;0.371429;2;2461;;
0.369263;137.944;7.06177e-06;0.369232;2;2463;;
0.367126;138.051;6.87561e-06;0.367157;2;2465;;
0.36499;138.158;6.62537e-06;0.365051;2;2467;;
0.362854;138.265;6.5979e-06;0.362885;2;2469;;
0.360718;138.371;6.5094e-06;0.360779;2;2471;;
0.358582;138.478;6.32324e-06;0.358521;2;2473;;
0.356445;138.585;6.27136e-06;0.356445;2;2475;;
0.354309;138.692;6.18591e-06;0.35434;2;2477;;
0.352173;138.799;6.08521e-06;0.352203;2;2479;;
0.350037;138.905;5.9967e-06;0.350067;2;2481;;
0.3479;139.012;5.9021e-06;0.347931;2;2483;;
0.345764;139.119;5.80139e-06;0.345764;2;2485;;
0.343628;139.226;5.66406e-06;0.343628;2;2487;;
0.341492;139.333;5.60913e-06;0.341522;2;2489;;
0.339355;139.44;5.42297e-06;0.339325;2;2491;;
0.337219;139.546;5.3772e-06;0.337219;2;2493;;
0.335083;139.653;5.16052e-06;0.335144;2;2495;;
0.332947;139.76;5.13306e-06;0.332947;2;2497;;
0.330811;139.867;5.08423e-06;0.330811;2;2499;;
0.328674;139.974;4.87671e-06;0.328674;2;2501;;
0.326538;140.08;4.80957e-06;0.326599;2;2503;;
0.324402;140.187;4.66614e-06;0.324371;2;2505;;
0.322266;140.294;4.57764e-06;0.322266;2;2507;;
0.320129;140.401;4.40643e-06;0.32019;2;2509;;
0.317993;140.508;4.26697e-06;0.317993;2;2511;;
0.315857;140.614;4.22089e-06;0.315887;2;2513;;
0.313721;140.721;4.04785e-06;0.313782;2;2515;;
0.311584;140.828;3.83453e-06;0.311615;2;2517;;
0.309448;140.935;3.68408e-06;0.309448;2;2519;;
0.307312;141.042;3.62366e-06;0.307281;2;2521;;
0.305176;141.149;3.47168e-06;0.305206;2;2523;;
0.30304;141.255;3.25104e-06;0.30304;2;2525;;
0.300903;141.362;3.15002e-06;0.300903;2;2527;;
0.298767;141.469;2.98309e-06;0.298798;2;2529;;
0.296631;141.576;2.82959e-06;0.296631;2;2531;;
0.294495;141.683;2.68005e-06;0.294556;2;2533;;
0.292358;141.789;2.51312e-06;0.292358;2;2535;;
0.290222;141.896;2.33948e-06;0.290222;2;2537;;
0.288086;142.003;2.17102e-06;0.288116;2;2539;;
0.28595;142.11;1.97601e-06;0.28598;2;2541;;
0.283813;142.217;1.58508e-06;0.283875;2;2543;;
0.281677;142.323;1.52618e-06;0.281708;2;2545;;
0.279541;142.43;1.3443e-06;0.279602;2;2547;;
0.277405;142.537;1.11877e-06;0.277496;2;2549;;
0.275269;142.644;8.71582e-07;0.275391;2;2551;;
0.273132;142.751;6.26831e-07;0.273193;2;2553;;
0.270996;142.858;3.83911e-07;0.271088;2;2555;;
0.26886;142.964;9.49707e-08;0.268951;2;2557;;
0.266724;143.071;-1.75171e-07;0.266815;2;2559;;
0.264587;143.178;-4.47693e-07;0.264709;2;2561;;
0.262451;143.285;-7.41882e-07;0.262604;2;2563;;
0.260315;143.392;-1.08093e-06;0.260468;2;2565;;
0.258179;143.498;-1.41479e-06;0.258423;2;2567;;
0.256042;143.605;-1.75659e-06;0.256317;2;2569;;
0.253906;143.712;-2.13806e-06;0.25415;2;2571;;
0.25177;143.819;-2.50488e-06;0.252075;2;2573;;
0.249634;143.926;-2.8949e-06;0.25;2;2575;;
0.247498;144.032;-3.33374e-06;0.247528;2;2577;;
0.245361;144.139;-3.76953e-06;0.245483;2;2579;;
0.243225;144.246;-4.25385e-06;0.243317;2;2581;;
0.241089;144.353;-4.71802e-06;0.24118;2;2583;;
0.238953;144.46;-5.22156e-06;0.239014;2;2585;;
0.236816;144.567;-5.74951e-06;0.236908;2;2587;;
0.23468;144.673;-6.30798e-06;0.234802;2;2589;;
0.232544;144.78;-6.89392e-06;0.232635;2;2591;;
0.230408;144.887;-7.51953e-06;0.23053;2;2593;;
0.228271;144.994;-8.1543e-06;0.228424;2;2595;;
0.226135;145.101;-8.8501e-06;0.226257;2;2597;;
0.223999;145.207;-9.53064e-06;0.224121;2;2599;;
0.221863;145.314;-1.02692e-05;0.221985;2;2601;;
0.219727;145.421;-1.10229e-05;0.219879;2;2603;;
0.21759;145.528;-1.18103e-05;0.217773;2;2605;;
0.215454;145.635;-1.26129e-05;0.215607;2;2607;;
0.213318;145.741;-1.34613e-05;0.21344;2;2609;;
0.211182;145.848;-1.43738e-05;0.211365;2;2611;;
0.209045;145.955;-1.52588e-05;0.209198;2;2613;;
0.206909;146.062;-1.62018e-05;0.207062;2;2615;;
0.204773;146.169;-1.71661e-05;0.204956;2;2617;;
0.202637;146.276;-1.81763e-05;0.20285;2;2619;;
0.2005;146.382;-1.9162e-05;0.200714;2;2621;;
0.198364;146.489;-2.02393e-05;0.198608;2;2623;;
0.196228;146.596;-2.12891e-05;0.196472;2;2625;;
0.194092;146.703;-2.2348e-05;0.194366;2;2627;;
0.191956;146.81;-2.35535e-05;0.1922;2;2629;;
0.189819;146.916;-2.45056e-05;0.190125;2;2631;;
0.187683;147.023;-2.57507e-05;0.187958;2;2633;;
0.185547;147.13;-2.68494e-05;0.185852;2;2635;;
0.183411;147.237;-2.78442e-05;0.183716;2;2637;;
0.181274;147.344;-2.9126e-05;0.18161;2;2639;;
0.179138;147.45;-3.01666e-05;0.179443;2;2641;;
0.177002;147.557;-3.12317e-05;0.177094;2;2643;;
0.174866;147.664;-3.23364e-05;0.174957;2;2645;;
0.172729;147.771;-3.34045e-05;0.172821;2;2647;;
0.170593;147.878;-3.45367e-05;0.170685;2;2649;;
0.168457;147.985;-3.56476e-05;0.168549;2;2651;;
0.166321;148.091;-3.66364e-05;0.166382;2;2653;;
0.164185;148.198;-3.76831e-05;0.164246;2;2655;;
0.162048;148.305;-3.87085e-05;0.16214;2;2657;;
0.159912;148.412;-3.96332e-05;0.159973;2;2659;;
0.157776;148.519;-4.0567e-05;0.157806;2;2661;;
0.15564;148.625;-4.1507e-05;0.155701;2;2663;;
0.153503;148.732;-4.21661e-05;0.153564;2;2665;;
0.151367;148.839;-4.30908e-05;0.151459;2;2667;;
0.149231;148.946;-4.38507e-05;0.149353;2;2669;;
0.147095;149.053;-4.46533e-05;0.147156;2;2671;;
0.144958;149.159;-4.53766e-05;0.14505;2;2673;;
0.142822;149.266;-4.61639e-05;0.142914;2;2675;;
0.140686;149.373;-4.69818e-05;0.140778;2;2677;;
0.13855;149.48;-4.78394e-05;0.138641;2;2679;;
0.136414;149.587;-4.84802e-05;0.136475;2;2681;;
0.134277;149.693;-4.8822e-05;0.134369;2;2683;;
0.132141;149.8;-4.8996e-05;0.132202;2;2685;;
0.130005;149.907;-4.91943e-05;0.130127;2;2687;;
0.127869;150.014;-4.953e-05;0.127899;2;2689;;
0.125732;150.121;-4.98047e-05;0.125763;2;2691;;
0.123596;150.228;-5.01404e-05;0.123627;2;2693;;
0.12146;150.334;-5.03235e-05;0.12149;2;2695;;
0.119324;150.441;-5.07202e-05;0.119354;2;2697;;
0.1171875;150.548;-5.07507e-05;0.117249;2;2699;;
0.115051;150.655;-5.078125E-05;0.115082;2;2701;;
0.112915;150.762;-5.08728e-05;0.112946;2;2703;;
0.110779;150.868;-5.08423e-05;0.110809;2;2705;;
0.108643;150.975;-5.08423e-05;0.108673;2;2707;;
0.106506;151.082;-5.07507e-05;0.106567;2;2709;;
0.10437;151.189;-5.06592e-05;0.104401;2;2711;;
0.102234;151.296;-5.05981e-05;0.102264;2;2713;;
0.100098;151.402;-5.04761e-05;0.100098;2;2715;;
0.0979614;151.509;-5.0293e-05;0.0979919;2;2717;;
0.0958252;151.616;-5.01709e-05;0.0958252;2;2719;;
0.093689;151.723;-4.99878e-05;0.0937195;2;2721;;
0.0915527;151.83;-4.98352e-05;0.0915833;2;2723;;
0.0894165;151.937;-4.96521e-05;0.089386;2;2725;;
0.0872803;152.043;-4.9469e-05;0.0872803;2;2727;;
0.085144;152.15;-4.93164e-05;0.085144;2;2729;;
0.0830078;152.257;-4.92004e-05;0.0830383;2;2731;;
0.0808716;152.364;-4.90387e-05;0.0809326;2;2733;;
0.0787354;152.471;-4.89136e-05;0.0787964;2;2735;;
0.0765991;152.577;-4.86786e-05;0.0766296;2;2737;;
0.0744629;152.684;-4.84528e-05;0.0745239;2;2739;;
0.0723267;152.791;-4.83612e-05;0.0723267;2;2741;;
0.0701904;152.898;-4.82147e-05;0.0702209;2;2743;;
0.0680542;153.005;-4.80621e-05;0.0681152;2;2745;;
0.065918;153.111;-4.79156e-05;0.065918;2;2747;;
0.0637817;153.218;-4.7757e-05;0.0638123;2;2749;;
0.0616455;153.325;-4.7644e-05;0.0617065;2;2751;;
0.0595093;153.432;-4.75159e-05;0.0595093;2;2753;;
0.057373;153.539;-4.73907e-05;0.0574036;2;2755;;
0.0552368;153.646;-4.72717e-05;0.0552673;2;2757;;
0.0531006;153.752;-4.71863e-05;0.0531616;2;2759;;
0.0509644;153.859;-4.7049e-05;0.0510559;2;2761;;
0.0488281;153.966;-4.69421e-05;0.0488861;2;2763;;
0.0466919;154.073;-4.68567e-05;0.0467499;2;2765;;
0.0445557;154.18;-4.67957e-05;0.0446106;2;2767;;
0.0424194;154.286;-4.66949e-05;0.0424774;2;2769;;
0.0402832;154.393;-4.66064e-05;0.0403442;2;2771;;
0.038147;154.5;-4.6521e-05;0.0382019;2;2773;;
0.0360107;154.607;-4.64539e-05;0.0360657;2;2775;;
0.0338745;154.714;-4.63684e-05;0.0339294;2;2777;;
0.0317383;154.82;-4.62708e-05;0.0317657;2;2779;;
0.0296021;154.927;-4.61884e-05;0.02966;2;2781;;
0.0274658;155.034;-4.61182e-05;0.0275177;2;2783;;
0.0253296;155.141;-4.60785e-05;0.0253601;2;2785;;
0.0231934;155.248;-4.60663e-05;0.0232452;2;2787;;
0.0210571;155.355;-4.59747e-05;0.021106;2;2789;;
0.0189209;155.461;-4.58954e-05;0.0189606;2;2791;;
0.0167847;155.568;-4.59015e-05;0.0168182;2;2793;;
0.0146484;155.675;-4.58191e-05;0.0147003;2;2795;;
0.0125122;155.782;-4.57916e-05;0.012561;2;2797;;
0.010376;155.889;-4.57581e-05;0.0104065;2;2799;;
0.00823975;155.995;-4.57092e-05;0.00827942;2;2801;;
0.00610352;156.102;-4.5639e-05;0.00614624;2;2803;;
0.00396729;156.209;-4.55963e-05;0.00397949;2;2805;;
0.00183105;156.316;-4.55811e-05;0.00183716;2;2807;;
-0.000305176;156.423;-4.55841e-05;-0.000283813;2;2809;;
-0.00244141;156.529;-4.55261e-05;-0.0024353;2;2811;;
-0.00457764;156.636;-4.55078e-05;-0.00456238;2;2813;;
-0.00671387;156.743;-4.54498e-05;-0.00670471;2;2815;;
-0.0088501;156.85;-4.54224e-05;-0.00883179;2;2817;;
-0.0109863;156.957;-4.54041e-05;-0.010968;2;2819;;
-0.0131226;157.064;-4.53979e-05;-0.013092;2;2821;;
-0.0152588;157.17;-4.53583e-05;-0.0152466;2;2823;;
-0.017395;157.277;-4.53552e-05;-0.0173889;2;2825;;
-0.01953125;157.384;-4.53003e-05;-0.0195007;2;2827;;
-0.0216675;157.491;-4.52545e-05;-0.0216553;2;2829;;
-0.0238037;157.598;-4.53552e-05;-0.0237854;2;2831;;
-0.0259399;157.704;-4.5166e-05;-0.0259094;2;2833;;
-0.0280762;157.811;-4.51447e-05;-0.0280457;2;2835;;
-0.0302124;157.918;-4.53003e-05;-0.0301819;2;2837;;
-0.0323486;158.025;-4.5105e-05;-0.0323212;2;2839;;
-0.0344849;158.132;-4.50745e-05;-0.0344635;2;2841;;
-0.0366211;158.238;-4.505e-05;-0.0365845;2;2843;;
-0.0387573;158.345;-4.50592e-05;-0.0387299;2;2845;;
-0.0408936;158.452;-4.50043e-05;-0.0408661;2;2847;;
-0.0430298;158.559;-4.49951e-05;-0.0430145;2;2849;;
-0.045166;158.666;-4.4928e-05;-0.0451263;2;2851;;
-0.0473022;158.773;-4.49768e-05;-0.0472595;2;2853;;
-0.0494385;158.879;-4.50897e-05;-0.0493958;2;2855;;
-0.0515747;158.986;-4.50409e-05;-0.0514832;2;2857;;
-0.0537109;159.093;-4.51477e-05;-0.0536499;2;2859;;
-0.0558472;159.2;-4.50043e-05;-0.0558167;2;2861;;
-0.0579834;159.307;-4.50012e-05;-0.0579529;2;2863;;
-0.0601196;159.413;-4.50195e-05;-0.0600586;2;2865;;
-0.0622559;159.52;-4.50073e-05;-0.0622253;2;2867;;
-0.0643921;159.627;-4.49432e-05;-0.06427;2;2869;;
-0.0665283;159.734;-4.50104e-05;-0.0664978;2;2871;;
-0.0686646;159.841;-4.49524e-05;-0.0685425;2;2873;;
-0.0708008;159.947;-4.50226e-05;-0.0707397;2;2875;;
-0.072937;160.054;-4.49493e-05;-0.072876;2;2877;;
-0.0750732;160.161;-4.4986e-05;-0.0749817;2;2879;;
-0.0772095;160.268;-4.50104e-05;-0.0771179;2;2881;;
-0.0793457;160.375;-4.50012e-05;-0.0792847;2;2883;;
-0.0814819;160.482;-4.49738e-05;-0.0813599;2;2885;;
-0.0836182;160.588;-4.49677e-05;-0.0835266;2;2887;;
-0.0857544;160.695;-4.49707e-05;-0.0856934;2;2889;;
-0.0878906;160.802;-4.49921e-05;-0.0877991;2;2891;;
-0.0900269;160.909;-4.49615e-05;-0.0899353;2;2893;;
-0.0921631;161.016;-4.49982e-05;-0.092041;2;2895;;
-0.0942993;161.122;-4.49982e-05;-0.0942078;2;2897;;
-0.0964355;161.229;-4.50562e-05;-0.0963745;2;2899;;
-0.0985718;161.336;-4.50714e-05;-0.0985107;2;2901;;
-0.100708;161.443;-4.50836e-05;-0.100647;2;2903;;
-0.102844;161.55;-4.50836e-05;-0.102783;2;2905;;
-0.10498;161.656;-4.51385e-05;-0.104889;2;2907;;
-0.107117;161.763;-4.51508e-05;-0.106995;2;2909;;
-0.109253;161.87;-4.51599e-05;-0.109131;2;2911;;
-0.111389;161.977;-4.52179e-05;-0.111267;2;2913;;
-0.113525;162.084;-4.52179e-05;-0.113434;2;2915;;
-0.115662;162.191;-4.52393e-05;-0.115601;2;2917;;
-0.117798;162.297;-4.53613e-05;-0.117645;2;2919;;
-0.119934;162.404;-4.53125E-05;-0.119843;2;2921;;
-0.12207;162.511;-4.53796e-05;-0.121979;2;2923;;
-0.124207;162.618;-4.54559e-05;-0.124084;2;2925;;
-0.126343;162.725;-4.54468e-05;-0.126221;2;2927;;
-0.128479;162.831;-4.5639e-05;-0.128357;2;2929;;
-0.130615;162.938;-4.5639e-05;-0.130493;2;2931;;
-0.132751;163.045;-4.57153e-05;-0.13266;2;2933;;
-0.134888;163.152;-4.58008e-05;-0.134766;2;2935;;
-0.137024;163.259;-4.58649e-05;-0.136871;2;2937;;
-0.13916;163.365;-4.59351e-05;-0.139038;2;2939;;
-0.141296;163.472;-4.60571e-05;-0.141174;2;2941;;
-0.143433;163.579;-4.60968e-05;-0.143311;2;2943;;
-0.145569;163.686;-4.62128e-05;-0.145477;2;2945;;
-0.147705;163.793;-4.63348e-05;-0.147583;2;2947;;
-0.149841;163.899;-4.64447e-05;-0.149689;2;2949;;
-0.151978;164.006;-4.65515e-05;-0.151855;2;2951;;
-0.154114;164.113;-4.66827e-05;-0.153992;2;2953;;
-0.15625;164.22;-4.68536e-05;-0.156128;2;2955;;
-0.158386;164.327;-4.69543e-05;-0.158234;2;2957;;
-0.160522;164.434;-4.70825e-05;-0.16037;2;2959;;
-0.162659;164.54;-4.72076e-05;-0.162506;2;2961;;
-0.164795;164.647;-4.73877e-05;-0.164642;2;2963;;
-0.166931;164.754;-4.75922e-05;-0.166779;2;2965;;
-0.169067;164.861;-4.77386e-05;-0.168884;2;2967;;
-0.171204;164.968;-4.78882e-05;-0.171051;2;2969;;
-0.17334;165.074;-4.80896e-05;-0.173187;2;2971;;
-0.175476;165.181;-4.83521e-05;-0.175354;2;2973;;
-0.177612;165.288;-4.85107e-05;-0.17749;2;2975;;
-0.179749;165.395;-4.86969e-05;-0.179596;2;2977;;
-0.181885;165.502;-4.89227e-05;-0.181702;2;2979;;
-0.184021;165.608;-4.91211e-05;-0.183868;2;2981;;
-0.186157;165.715;-4.93164e-05;-0.186005;2;2983;;
-0.188293;165.822;-4.95605e-05;-0.188141;2;2985;;
-0.19043;165.929;-4.98047e-05;-0.190338;2;2987;;
-0.192566;166.036;-5.00183e-05;-0.192413;2;2989;;
-0.194702;166.143;-5.0293e-05;-0.19458;2;2991;;
-0.196838;166.249;-5.05371e-05;-0.196686;2;2993;;
-0.198975;166.356;-5.09033e-05;-0.198853;2;2995;;
-0.198975;166.463;-4.6225e-05;-0.198853;2;2997;;
-0.197906;166.516;-4.44611e-05;-0.197754;2;2998;;