File: Laboratorio 2/Verificar Equacao de Randles Sevcik/CV_100 mV_Ferri_ferro.txt
Potential applied (V);Time (s);WE(1).Current (A);WE(1).Potential (V);Scan;Index;Q+;Q-
-0.196838;22.4881;-0.000547485;-0.196655;2;1501;;
-0.194702;22.5094;-0.000544434;-0.19458;2;1503;;
-0.192566;22.5308;-0.000541687;-0.192413;2;1505;;
-0.19043;22.5522;-0.00053894;-0.190308;2;1507;;
-0.188293;22.5735;-0.000536499;-0.188141;2;1509;;
-0.186157;22.5949;-0.000534058;-0.185974;2;1511;;
-0.184021;22.6162;-0.000531616;-0.183899;2;1513;;
-0.181885;22.6376;-0.000529175;-0.181763;2;1515;;
-0.179749;22.659;-0.000527039;-0.179657;2;1517;;
-0.177612;22.6803;-0.000524902;-0.177521;2;1519;;
-0.175476;22.7017;-0.000522461;-0.175354;2;1521;;
-0.17334;22.723;-0.000520325;-0.173248;2;1523;;
-0.171204;22.7444;-0.000518188;-0.171051;2;1525;;
-0.169067;22.7658;-0.000516052;-0.168884;2;1527;;
-0.166931;22.7871;-0.000513916;-0.166809;2;1529;;
-0.164795;22.8085;-0.000511475;-0.164642;2;1531;;
-0.162659;22.8299;-0.000509338;-0.162598;2;1533;;
-0.160522;22.8512;-0.000507202;-0.160461;2;1535;;
-0.158386;22.8726;-0.000505371;-0.158295;2;1537;;
-0.15625;22.8939;-0.000503235;-0.156128;2;1539;;
-0.154114;22.9153;-0.000501404;-0.153992;2;1541;;
-0.151978;22.9367;-0.000499268;-0.151886;2;1543;;
-0.149841;22.958;-0.000497375;-0.149689;2;1545;;
-0.147705;22.9794;-0.000495148;-0.147614;2;1547;;
-0.145569;23.0008;-0.000493347;-0.145416;2;1549;;
-0.143433;23.0221;-0.000491272;-0.143311;2;1551;;
-0.141296;23.0435;-0.000489471;-0.141144;2;1553;;
-0.13916;23.0648;-0.000487396;-0.139038;2;1555;;
-0.137024;23.0862;-0.000485413;-0.136902;2;1557;;
-0.134888;23.1076;-0.00048349;-0.134796;2;1559;;
-0.132751;23.1289;-0.000481598;-0.132599;2;1561;;
-0.130615;23.1503;-0.000479614;-0.130493;2;1563;;
-0.128479;23.1716;-0.000477783;-0.128326;2;1565;;
-0.126343;23.193;-0.00047583;-0.126251;2;1567;;
-0.124207;23.2144;-0.000473816;-0.124084;2;1569;;
-0.12207;23.2357;-0.000471863;-0.121918;2;1571;;
-0.119934;23.2571;-0.00046994;-0.119873;2;1573;;
-0.117798;23.2785;-0.00046817;-0.117706;2;1575;;
-0.115662;23.2998;-0.000466217;-0.115631;2;1577;;
-0.113525;23.3212;-0.000464142;-0.113434;2;1579;;
-0.111389;23.3425;-0.000462402;-0.111237;2;1581;;
-0.109253;23.3639;-0.000460419;-0.109161;2;1583;;
-0.107117;23.3853;-0.000458466;-0.106995;2;1585;;
-0.10498;23.4066;-0.000456757;-0.104858;2;1587;;
-0.102844;23.428;-0.000454895;-0.102753;2;1589;;
-0.100708;23.4494;-0.000453033;-0.100616;2;1591;;
-0.0985718;23.4707;-0.000451233;-0.0984802;2;1593;;
-0.0964355;23.4921;-0.000449219;-0.096344;2;1595;;
-0.0942993;23.5134;-0.000447388;-0.0941772;2;1597;;
-0.0921631;23.5348;-0.000445435;-0.0921021;2;1599;;
-0.0900269;23.5562;-0.000443451;-0.0899658;2;1601;;
-0.0878906;23.5775;-0.000441833;-0.0878296;2;1603;;
-0.0857544;23.5989;-0.000439972;-0.0857239;2;1605;;
-0.0836182;23.6203;-0.000438202;-0.0836182;2;1607;;
-0.0814819;23.6416;-0.000436279;-0.0814209;2;1609;;
-0.0793457;23.663;-0.000434296;-0.0792542;2;1611;;
-0.0772095;23.6843;-0.000432465;-0.0771484;2;1613;;
-0.0750732;23.7057;-0.000430847;-0.0749817;2;1615;;
-0.072937;23.7271;-0.000428986;-0.072876;2;1617;;
-0.0708008;23.7484;-0.000427124;-0.0707397;2;1619;;
-0.0686646;23.7698;-0.000425262;-0.068573;2;1621;;
-0.0665283;23.7911;-0.000423462;-0.0664673;2;1623;;
-0.0643921;23.8125;-0.000421631;-0.0643005;2;1625;;
-0.0622559;23.8339;-0.000419678;-0.0622253;2;1627;;
-0.0601196;23.8552;-0.000417847;-0.0599976;2;1629;;
-0.0579834;23.8766;-0.000415802;-0.0579224;2;1631;;
-0.0558472;23.898;-0.000414215;-0.0557861;2;1633;;
-0.0537109;23.9193;-0.000412415;-0.0536499;2;1635;;
-0.0515747;23.9407;-0.000410675;-0.0514832;2;1637;;
-0.0494385;23.962;-0.000408722;-0.0494324;2;1639;;
-0.0473022;23.9834;-0.000406952;-0.0472595;2;1641;;
-0.045166;24.0048;-0.000405365;-0.0451141;2;1643;;
-0.0430298;24.0261;-0.000403503;-0.0429932;2;1645;;
-0.0408936;24.0475;-0.000401794;-0.0408691;2;1647;;
-0.0387573;24.0689;-0.000400024;-0.038736;2;1649;;
-0.0366211;24.0902;-0.000398193;-0.0365662;2;1651;;
-0.0344849;24.1116;-0.000396484;-0.0344543;2;1653;;
-0.0323486;24.1329;-0.000394531;-0.0323395;2;1655;;
-0.0302124;24.1543;-0.000392731;-0.0301819;2;1657;;
-0.0280762;24.1757;-0.000391022;-0.0280731;2;1659;;
-0.0259399;24.197;-0.00038916;-0.0258972;2;1661;;
-0.0238037;24.2184;-0.00038739;-0.0237579;2;1663;;
-0.0216675;24.2397;-0.00038559;-0.0216248;2;1665;;
-0.01953125;24.2611;-0.000383911;-0.0194977;2;1667;;
-0.017395;24.2825;-0.000382111;-0.0173767;2;1669;;
-0.0152588;24.3038;-0.000380341;-0.0152374;2;1671;;
-0.0131226;24.3252;-0.000378632;-0.0131042;2;1673;;
-0.0109863;24.3466;-0.000376862;-0.010968;2;1675;;
-0.0088501;24.3679;-0.000375031;-0.00881958;2;1677;;
-0.00671387;24.3893;-0.000373169;-0.00670776;2;1679;;
-0.00457764;24.4106;-0.000371399;-0.00456238;2;1681;;
-0.00244141;24.432;-0.000369629;-0.00239258;2;1683;;
-0.000305176;24.4534;-0.000367828;-0.000308228;2;1685;;
0.00183105;24.4747;-0.000366058;0.00184631;2;1687;;
0.00396729;24.4961;-0.000364105;0.0039856;2;1689;;
0.00610352;24.5175;-0.000362457;0.0061615;2;1691;;
0.00823975;24.5388;-0.000360596;0.00828247;2;1693;;
0.010376;24.5602;-0.000358765;0.0104187;2;1695;;
0.0125122;24.5815;-0.000356964;0.0125641;2;1697;;
0.0146484;24.6029;-0.000355377;0.014682;2;1699;;
0.0167847;24.6243;-0.000353363;0.0168243;2;1701;;
0.0189209;24.6456;-0.000351685;0.0189484;2;1703;;
0.0210571;24.667;-0.00034967;0.0210968;2;1705;;
0.0231934;24.6884;-0.00034787;0.0232117;2;1707;;
0.0253296;24.7097;-0.000346069;0.0253693;2;1709;;
0.0274658;24.7311;-0.000344269;0.0275116;2;1711;;
0.0296021;24.7524;-0.000342316;0.0296356;2;1713;;
0.0317383;24.7738;-0.000340485;0.0317719;2;1715;;
0.0338745;24.7952;-0.000338562;0.0339386;2;1717;;
0.0360107;24.8165;-0.00033667;0.0360413;2;1719;;
0.038147;24.8379;-0.000334839;0.0382111;2;1721;;
0.0402832;24.8592;-0.00033316;0.0403503;2;1723;;
0.0424194;24.8806;-0.000331238;0.0424744;2;1725;;
0.0445557;24.902;-0.000329346;0.0446289;2;1727;;
0.0466919;24.9233;-0.000327423;0.0467377;2;1729;;
0.0488281;24.9447;-0.000325592;0.0489044;2;1731;;
0.0509644;24.9661;-0.000323578;0.0509338;2;1733;;
0.0531006;24.9874;-0.000321747;0.0531311;2;1735;;
0.0552368;25.0088;-0.000319824;0.0552673;2;1737;;
0.057373;25.0301;-0.000317902;0.0574341;2;1739;;
0.0595093;25.0515;-0.00031604;0.0595093;2;1741;;
0.0616455;25.0729;-0.000313965;0.0617065;2;1743;;
0.0637817;25.0942;-0.000311981;0.0637817;2;1745;;
0.065918;25.1156;-0.000309937;0.0658875;2;1747;;
0.0680542;25.137;-0.000307953;0.0681152;2;1749;;
0.0701904;25.1583;-0.00030603;0.0702209;2;1751;;
0.0723267;25.1797;-0.000303955;0.0723572;2;1753;;
0.0744629;25.201;-0.000301697;0.0744934;2;1755;;
0.0765991;25.2224;-0.000299652;0.0766296;2;1757;;
0.0787354;25.2438;-0.000297668;0.0787659;2;1759;;
0.0808716;25.2651;-0.000295471;0.0809326;2;1761;;
0.0830078;25.2865;-0.000293213;0.0830383;2;1763;;
0.085144;25.3078;-0.000291168;0.0851746;2;1765;;
0.0872803;25.3292;-0.000288879;0.0873108;2;1767;;
0.0894165;25.3506;-0.000286713;0.089447;2;1769;;
0.0915527;25.3719;-0.000284485;0.0915833;2;1771;;
0.093689;25.3933;-0.000282257;0.093689;2;1773;;
0.0958252;25.4147;-0.000279907;0.0958862;2;1775;;
0.0979614;25.436;-0.000277557;0.0980225;2;1777;;
0.100098;25.4574;-0.000275208;0.100098;2;1779;;
0.102234;25.4787;-0.000272675;0.102264;2;1781;;
0.10437;25.5001;-0.000270294;0.104431;2;1783;;
0.106506;25.5215;-0.000267914;0.106598;2;1785;;
0.108643;25.5428;-0.00026535;0.108704;2;1787;;
0.110779;25.5642;-0.000262909;0.110809;2;1789;;
0.112915;25.5856;-0.000260162;0.112976;2;1791;;
0.115051;25.6069;-0.000257629;0.115112;2;1793;;
0.1171875;25.6283;-0.000254944;0.1171875;2;1795;;
0.119324;25.6496;-0.000252075;0.119324;2;1797;;
0.12146;25.671;-0.00024942;0.12149;2;1799;;
0.123596;25.6924;-0.000246674;0.123657;2;1801;;
0.125732;25.7137;-0.000243805;0.125793;2;1803;;
0.127869;25.7351;-0.000240875;0.127869;2;1805;;
0.130005;25.7565;-0.000237885;0.130157;2;1807;;
0.132141;25.7778;-0.000234772;0.132172;2;1809;;
0.134277;25.7992;-0.000231812;0.134399;2;1811;;
0.136414;25.8205;-0.000228607;0.136475;2;1813;;
0.13855;25.8419;-0.000225494;0.13858;2;1815;;
0.140686;25.8633;-0.000222382;0.140747;2;1817;;
0.142822;25.8846;-0.000218994;0.142914;2;1819;;
0.144958;25.906;-0.000215759;0.14502;2;1821;;
0.147095;25.9273;-0.000212219;0.147156;2;1823;;
0.149231;25.9487;-0.000208832;0.149261;2;1825;;
0.151367;25.9701;-0.000205414;0.151459;2;1827;;
0.153503;25.9914;-0.000201874;0.153595;2;1829;;
0.15564;26.0128;-0.000198151;0.15564;2;1831;;
0.157776;26.0342;-0.00019455;0.157837;2;1833;;
0.159912;26.0555;-0.000190857;0.159943;2;1835;;
0.162048;26.0769;-0.000187012;0.162079;2;1837;;
0.164185;26.0982;-0.000183289;0.164215;2;1839;;
0.166321;26.1196;-0.000179474;0.166382;2;1841;;
0.168457;26.141;-0.000175507;0.168488;2;1843;;
0.170593;26.1623;-0.00017157;0.170654;2;1845;;
0.172729;26.1837;-0.000167603;0.172821;2;1847;;
0.174866;26.2051;-0.000163544;0.174866;2;1849;;
0.177002;26.2264;-0.000159637;0.177032;2;1851;;
0.179138;26.2478;-0.000155365;0.179199;2;1853;;
0.181274;26.2691;-0.000151245;0.181274;2;1855;;
0.183411;26.2905;-0.000147095;0.183411;2;1857;;
0.185547;26.3119;-0.000142792;0.185577;2;1859;;
0.187683;26.3332;-0.00013858;0.187653;2;1861;;
0.189819;26.3546;-0.000134186;0.18985;2;1863;;
0.191956;26.3759;-0.000129883;0.192047;2;1865;;
0.194092;26.3973;-0.000125519;0.194092;2;1867;;
0.196228;26.4187;-0.000121124;0.196259;2;1869;;
0.198364;26.44;-0.00011673;0.198425;2;1871;;
0.2005;26.4614;-0.000112366;0.200562;2;1873;;
0.202637;26.4828;-0.000108093;0.202667;2;1875;;
0.204773;26.5041;-0.000103577;0.204865;2;1877;;
0.206909;26.5255;-9.92432e-05;0.207001;2;1879;;
0.209045;26.5468;-9.48181e-05;0.209106;2;1881;;
0.211182;26.5682;-9.0271e-05;0.211243;2;1883;;
0.213318;26.5896;-8.60291e-05;0.213409;2;1885;;
0.215454;26.6109;-8.15735e-05;0.215515;2;1887;;
0.21759;26.6323;-7.70569e-05;0.217682;2;1889;;
0.219727;26.6537;-7.26624e-05;0.219818;2;1891;;
0.221863;26.675;-6.82983e-05;0.221863;2;1893;;
0.223999;26.6964;-6.38428e-05;0.223999;2;1895;;
0.226135;26.7177;-5.94482e-05;0.226135;2;1897;;
0.228271;26.7391;-5.50842e-05;0.228333;2;1899;;
0.230408;26.7605;-5.078125E-05;0.230438;2;1901;;
0.232544;26.7818;-4.65851e-05;0.232635;2;1903;;
0.23468;26.8032;-4.22943e-05;0.234741;2;1905;;
0.236816;26.8246;-3.80096e-05;0.236908;2;1907;;
0.238953;26.8459;-3.38226e-05;0.239014;2;1909;;
0.241089;26.8673;-2.95837e-05;0.24118;2;1911;;
0.243225;26.8886;-2.55157e-05;0.243378;2;1913;;
0.245361;26.91;-2.14081e-05;0.245392;2;1915;;
0.247498;26.9314;-1.74377e-05;0.247528;2;1917;;
0.249634;26.9527;-1.33392e-05;0.249725;2;1919;;
0.25177;26.9741;-9.46655e-06;0.251831;2;1921;;
0.253906;26.9954;-5.53589e-06;0.253906;2;1923;;
0.256042;27.0168;-1.72028e-06;0.256165;2;1925;;
0.258179;27.0382;2.146e-06;0.258179;2;1927;;
0.260315;27.0595;5.79224e-06;0.260254;2;1929;;
0.262451;27.0809;9.4696e-06;0.26236;2;1931;;
0.264587;27.1023;1.31653e-05;0.264465;2;1933;;
0.266724;27.1236;1.66351e-05;0.266541;2;1935;;
0.26886;27.145;2.00775e-05;0.268646;2;1937;;
0.270996;27.1663;2.34497e-05;0.270782;2;1939;;
0.273132;27.1877;2.68799e-05;0.272766;2;1941;;
0.275269;27.2091;3.00995e-05;0.274872;2;1943;;
0.277405;27.2304;3.34137e-05;0.277405;2;1945;;
0.279541;27.2518;3.65601e-05;0.279541;2;1947;;
0.281677;27.2732;3.96027e-05;0.281677;2;1949;;
0.283813;27.2945;4.2569e-05;0.283783;2;1951;;
0.28595;27.3159;4.55292e-05;0.285889;2;1953;;
0.288086;27.3372;4.83551e-05;0.288086;2;1955;;
0.290222;27.3586;5.1178e-05;0.290253;2;1957;;
0.292358;27.38;5.38635e-05;0.292328;2;1959;;
0.294495;27.4013;5.6427e-05;0.294464;2;1961;;
0.296631;27.4227;5.89294e-05;0.296539;2;1963;;
0.298767;27.444;6.13403e-05;0.298676;2;1965;;
0.300903;27.4654;6.37817e-05;0.300873;2;1967;;
0.30304;27.4868;6.60095e-05;0.303009;2;1969;;
0.305176;27.5081;6.82678e-05;0.305084;2;1971;;
0.307312;27.5295;7.04041e-05;0.307251;2;1973;;
0.309448;27.5509;7.24792e-05;0.309418;2;1975;;
0.311584;27.5722;7.44019e-05;0.311493;2;1977;;
0.313721;27.5936;7.63855e-05;0.31369;2;1979;;
0.315857;27.6149;7.82166e-05;0.315826;2;1981;;
0.317993;27.6363;7.99866e-05;0.317993;2;1983;;
0.320129;27.6577;8.1543e-05;0.320099;2;1985;;
0.322266;27.679;8.31909e-05;0.322266;2;1987;;
0.324402;27.7004;8.47168e-05;0.324402;2;1989;;
0.326538;27.7218;8.61206e-05;0.326508;2;1991;;
0.328674;27.7431;8.75549e-05;0.328583;2;1993;;
0.330811;27.7645;8.88977e-05;0.330811;2;1995;;
0.332947;27.7858;9.01184e-05;0.332916;2;1997;;
0.335083;27.8072;9.12476e-05;0.335114;2;1999;;
0.337219;27.8286;9.24072e-05;0.337158;2;2001;;
0.339355;27.8499;9.34143e-05;0.339386;2;2003;;
0.341492;27.8713;9.43909e-05;0.341492;2;2005;;
0.343628;27.8927;9.53064e-05;0.343597;2;2007;;
0.345764;27.914;9.61914e-05;0.345734;2;2009;;
0.3479;27.9354;9.69543e-05;0.347839;2;2011;;
0.350037;27.9567;9.77478e-05;0.350006;2;2013;;
0.352173;27.9781;9.83887e-05;0.352081;2;2015;;
0.354309;27.9995;9.90601e-05;0.354279;2;2017;;
0.356445;28.0208;9.97314e-05;0.356384;2;2019;;
0.358582;28.0422;0.000100311;0.358582;2;2021;;
0.360718;28.0635;0.000100861;0.360657;2;2023;;
0.362854;28.0849;0.000101349;0.362854;2;2025;;
0.36499;28.1063;0.000101776;0.36499;2;2027;;
0.367126;28.1276;0.000102203;0.367065;2;2029;;
0.369263;28.149;0.000102661;0.369263;2;2031;;
0.371399;28.1704;0.000102966;0.371368;2;2033;;
0.373535;28.1917;0.000103302;0.373505;2;2035;;
0.375671;28.2131;0.000103577;0.375702;2;2037;;
0.377808;28.2344;0.000103851;0.377838;2;2039;;
0.379944;28.2558;0.000104156;0.379913;2;2041;;
0.38208;28.2772;0.000104401;0.38205;2;2043;;
0.384216;28.2985;0.000104614;0.384186;2;2045;;
0.386353;28.3199;0.000104858;0.386353;2;2047;;
0.388489;28.3413;0.000105042;0.388519;2;2049;;
0.390625;28.3626;0.000105194;0.390594;2;2051;;
0.392761;28.384;0.000105408;0.392731;2;2053;;
0.394897;28.4053;0.00010556;0.394897;2;2055;;
0.397034;28.4267;0.000105743;0.397064;2;2057;;
0.39917;28.4481;0.000105896;0.399139;2;2059;;
0.401306;28.4694;0.00010611;0.401306;2;2061;;
0.403442;28.4908;0.000106201;0.403442;2;2063;;
0.405579;28.5121;0.000106323;0.405579;2;2065;;
0.407715;28.5335;0.000106445;0.407715;2;2067;;
0.409851;28.5549;0.000106628;0.409851;2;2069;;
0.411987;28.5762;0.000106781;0.411957;2;2071;;
0.414124;28.5976;0.000106934;0.414093;2;2073;;
0.41626;28.619;0.000107147;0.416199;2;2075;;
0.418396;28.6403;0.000107269;0.418396;2;2077;;
0.420532;28.6617;0.000107452;0.420532;2;2079;;
0.422668;28.683;0.000107574;0.422607;2;2081;;
0.424805;28.7044;0.000107788;0.424744;2;2083;;
0.426941;28.7258;0.000108002;0.426941;2;2085;;
0.429077;28.7471;0.000108185;0.429108;2;2087;;
0.431213;28.7685;0.000108398;0.431183;2;2089;;
0.43335;28.7899;0.000108582;0.433289;2;2091;;
0.435486;28.8112;0.000108826;0.435516;2;2093;;
0.437622;28.8326;0.00010907;0.437561;2;2095;;
0.439758;28.8539;0.000109344;0.439758;2;2097;;
0.441895;28.8753;0.000109589;0.441925;2;2099;;
0.444031;28.8967;0.000109894;0.444;2;2101;;
0.446167;28.918;0.000110138;0.446136;2;2103;;
0.448303;28.9394;0.000110413;0.448303;2;2105;;
0.450439;28.9608;0.000110718;0.450409;2;2107;;
0.452576;28.9821;0.000110992;0.452606;2;2109;;
0.454712;29.0035;0.000111389;0.454681;2;2111;;
0.456848;29.0248;0.000111694;0.456848;2;2113;;
0.458984;29.0462;0.000112061;0.458954;2;2115;;
0.461121;29.0676;0.000112427;0.46109;2;2117;;
0.463257;29.0889;0.000112823;0.463257;2;2119;;
0.465393;29.1103;0.000113159;0.465424;2;2121;;
0.467529;29.1316;0.000113586;0.467438;2;2123;;
0.469666;29.153;0.000113983;0.469635;2;2125;;
0.471802;29.1744;0.00011441;0.471771;2;2127;;
0.473938;29.1957;0.000114838;0.473969;2;2129;;
0.476074;29.2171;0.000115265;0.476074;2;2131;;
0.47821;29.2385;0.000115723;0.478241;2;2133;;
0.480347;29.2598;0.000116211;0.480347;2;2135;;
0.482483;29.2812;0.000116669;0.482452;2;2137;;
0.484619;29.3025;0.000117218;0.484619;2;2139;;
0.486755;29.3239;0.000117676;0.486694;2;2141;;
0.488892;29.3453;0.000118164;0.488892;2;2143;;
0.491028;29.3666;0.000118713;0.491028;2;2145;;
0.493164;29.388;0.000119263;0.493134;2;2147;;
0.4953;29.4094;0.000119812;0.49527;2;2149;;
0.497437;29.4307;0.000120361;0.497406;2;2151;;
0.499573;29.4521;0.000120941;0.499634;2;2153;;
0.501709;29.4734;0.000121521;0.50174;2;2155;;
0.503845;29.4948;0.000122101;0.503845;2;2157;;
0.505981;29.5162;0.000122711;0.505981;2;2159;;
0.508118;29.5375;0.000123352;0.508087;2;2161;;
0.510254;29.5589;0.000123962;0.510223;2;2163;;
0.51239;29.5802;0.000124603;0.51239;2;2165;;
0.514526;29.6016;0.000125244;0.514465;2;2167;;
0.516663;29.623;0.000125916;0.516663;2;2169;;
0.518799;29.6443;0.000126556;0.518829;2;2171;;
0.520935;29.6657;0.000127258;0.520935;2;2173;;
0.523071;29.6871;0.00012796;0.523071;2;2175;;
0.525208;29.7084;0.000128632;0.525238;2;2177;;
0.527344;29.7298;0.000129303;0.527344;2;2179;;
0.52948;29.7511;0.000130035;0.529419;2;2181;;
0.531616;29.7725;0.000130768;0.531647;2;2183;;
0.533752;29.7939;0.0001315;0.533722;2;2185;;
0.535889;29.8152;0.000132263;0.535828;2;2187;;
0.538025;29.8366;0.000133026;0.537933;2;2189;;
0.540161;29.858;0.000133759;0.540131;2;2191;;
0.542297;29.8793;0.000134521;0.542297;2;2193;;
0.544434;29.9007;0.000135315;0.544434;2;2195;;
0.54657;29.922;0.000136108;0.546509;2;2197;;
0.548706;29.9434;0.000136963;0.548615;2;2199;;
0.550842;29.9648;0.000137726;0.550812;2;2201;;
0.552979;29.9861;0.00013858;0.552948;2;2203;;
0.555115;30.0075;0.000139343;0.555084;2;2205;;
0.557251;30.0289;0.000140137;0.557281;2;2207;;
0.559387;30.0502;0.000140991;0.559357;2;2209;;
0.561523;30.0716;0.000141876;0.561432;2;2211;;
0.56366;30.0929;0.000142761;0.563599;2;2213;;
0.565796;30.1143;0.000143555;0.565735;2;2215;;
0.567932;30.1357;0.00014444;0.567902;2;2217;;
0.570068;30.157;0.000145325;0.570038;2;2219;;
0.572205;30.1784;0.000146179;0.572144;2;2221;;
0.574341;30.1997;0.000147095;0.57431;2;2223;;
0.576477;30.2211;0.00014801;0.576447;2;2225;;
0.578613;30.2425;0.000148895;0.578552;2;2227;;
0.58075;30.2638;0.000149811;0.580719;2;2229;;
0.582886;30.2852;0.000150726;0.582855;2;2231;;
0.585022;30.3066;0.000151672;0.584991;2;2233;;
0.587158;30.3279;0.000152588;0.587128;2;2235;;
0.589294;30.3493;0.000153534;0.589233;2;2237;;
0.591431;30.3706;0.00015451;0.59137;2;2239;;
0.593567;30.392;0.000155426;0.593475;2;2241;;
0.595703;30.4134;0.000156433;0.595642;2;2243;;
0.597839;30.4347;0.000157349;0.597748;2;2245;;
0.599976;30.4561;0.000158325;0.599884;2;2247;;
0.597839;30.4775;0.000155029;0.597778;2;2249;;
0.595703;30.4988;0.000152527;0.595642;2;2251;;
0.593567;30.5202;0.000150238;0.593445;2;2253;;
0.591431;30.5415;0.00014801;0.591339;2;2255;;
0.589294;30.5629;0.000145874;0.589233;2;2257;;
0.587158;30.5843;0.000143768;0.587097;2;2259;;
0.585022;30.6056;0.000141754;0.584991;2;2261;;
0.582886;30.627;0.00013974;0.582825;2;2263;;
0.58075;30.6483;0.000137756;0.58075;2;2265;;
0.578613;30.6697;0.000135864;0.578552;2;2267;;
0.576477;30.6911;0.000133881;0.576477;2;2269;;
0.574341;30.7124;0.000131958;0.574341;2;2271;;
0.572205;30.7338;0.000130096;0.572144;2;2273;;
0.570068;30.7552;0.000128204;0.570068;2;2275;;
0.567932;30.7765;0.000126343;0.567871;2;2277;;
0.565796;30.7979;0.000124542;0.565826;2;2279;;
0.56366;30.8192;0.00012262;0.56369;2;2281;;
0.561523;30.8406;0.000120819;0.561493;2;2283;;
0.559387;30.862;0.000119019;0.559387;2;2285;;
0.557251;30.8833;0.0001171875;0.557251;2;2287;;
0.555115;30.9047;0.000115448;0.555084;2;2289;;
0.552979;30.9261;0.000113647;0.552917;2;2291;;
0.550842;30.9474;0.000111847;0.550842;2;2293;;
0.548706;30.9688;0.000110046;0.548676;2;2295;;
0.54657;30.9901;0.000108307;0.546539;2;2297;;
0.544434;31.0115;0.000106537;0.544464;2;2299;;
0.542297;31.0329;0.000104828;0.542267;2;2301;;
0.540161;31.0542;0.000103088;0.540222;2;2303;;
0.538025;31.0756;0.000101318;0.538055;2;2305;;
0.535889;31.097;9.95789e-05;0.53595;2;2307;;
0.533752;31.1183;9.78394e-05;0.533752;2;2309;;
0.531616;31.1397;9.61304e-05;0.531616;2;2311;;
0.52948;31.161;9.44214e-05;0.52951;2;2313;;
0.527344;31.1824;9.26819e-05;0.527344;2;2315;;
0.525208;31.2038;9.10034e-05;0.525238;2;2317;;
0.523071;31.2251;8.92639e-05;0.523071;2;2319;;
0.520935;31.2465;8.75549e-05;0.520996;2;2321;;
0.518799;31.2678;8.58459e-05;0.51886;2;2323;;
0.516663;31.2892;8.41675e-05;0.516693;2;2325;;
0.514526;31.3106;8.2489e-05;0.514618;2;2327;;
0.51239;31.3319;8.078e-05;0.512421;2;2329;;
0.510254;31.3533;7.91016e-05;0.510376;2;2331;;
0.508118;31.3747;7.73926e-05;0.508118;2;2333;;
0.505981;31.396;7.57141e-05;0.505981;2;2335;;
0.503845;31.4174;7.40662e-05;0.503876;2;2337;;
0.501709;31.4387;7.23877e-05;0.50174;2;2339;;
0.499573;31.4601;7.07092e-05;0.499634;2;2341;;
0.497437;31.4815;6.90308e-05;0.497498;2;2343;;
0.4953;31.5028;6.73523e-05;0.4953;2;2345;;
0.493164;31.5242;6.56738e-05;0.493164;2;2347;;
0.491028;31.5456;6.39954e-05;0.491089;2;2349;;
0.488892;31.5669;6.23169e-05;0.488953;2;2351;;
0.486755;31.5883;6.06995e-05;0.486816;2;2353;;
0.484619;31.6096;5.9021e-05;0.48465;2;2355;;
0.482483;31.631;5.73425e-05;0.482544;2;2357;;
0.480347;31.6524;5.56946e-05;0.480438;2;2359;;
0.47821;31.6737;5.40466e-05;0.478241;2;2361;;
0.476074;31.6951;5.23682e-05;0.476135;2;2363;;
0.473938;31.7164;5.07202e-05;0.473999;2;2365;;
0.471802;31.7378;4.90692e-05;0.471863;2;2367;;
0.469666;31.7592;4.73938e-05;0.469696;2;2369;;
0.467529;31.7805;4.5755e-05;0.46759;2;2371;;
0.465393;31.8019;4.41071e-05;0.465515;2;2373;;
0.463257;31.8233;4.2453e-05;0.463318;2;2375;;
0.461121;31.8446;4.07867e-05;0.461182;2;2377;;
0.458984;31.866;3.91418e-05;0.459076;2;2379;;
0.456848;31.8873;3.75092e-05;0.45694;2;2381;;
0.454712;31.9087;3.5849e-05;0.454773;2;2383;;
0.452576;31.9301;3.41858e-05;0.452667;2;2385;;
0.450439;31.9514;3.25165e-05;0.450592;2;2387;;
0.448303;31.9728;3.08716e-05;0.448364;2;2389;;
0.446167;31.9942;2.92297e-05;0.446289;2;2391;;
0.444031;32.0155;2.75879e-05;0.444122;2;2393;;
0.441895;32.0369;2.59308e-05;0.442017;2;2395;;
0.439758;32.0582;2.42676e-05;0.43985;2;2397;;
0.437622;32.0796;2.26257e-05;0.437714;2;2399;;
0.435486;32.101;2.09686e-05;0.435516;2;2401;;
0.43335;32.1223;1.93176e-05;0.433411;2;2403;;
0.431213;32.1437;1.76575e-05;0.431244;2;2405;;
0.429077;32.1651;1.60217e-05;0.42923;2;2407;;
0.426941;32.1864;1.43311e-05;0.427032;2;2409;;
0.424805;32.2078;1.27014e-05;0.424896;2;2411;;
0.422668;32.2291;1.10138e-05;0.42276;2;2413;;
0.420532;32.2505;9.37805e-06;0.420654;2;2415;;
0.418396;32.2719;7.74841e-06;0.418488;2;2417;;
0.41626;32.2932;6.05164e-06;0.416382;2;2419;;
0.414124;32.3146;4.37927e-06;0.414154;2;2421;;
0.411987;32.3359;2.68433e-06;0.412018;2;2423;;
0.409851;32.3573;1.02509e-06;0.409943;2;2425;;
0.407715;32.3787;-6.27136e-07;0.407837;2;2427;;
0.405579;32.4;-2.32147e-06;0.405731;2;2429;;
0.403442;32.4214;-3.94562e-06;0.403564;2;2431;;
0.401306;32.4428;-5.65491e-06;0.401489;2;2433;;
0.39917;32.4641;-7.34863e-06;0.399384;2;2435;;
0.397034;32.4855;-9.00879e-06;0.397278;2;2437;;
0.394897;32.5068;-1.07147e-05;0.395081;2;2439;;
0.392761;32.5282;-1.23291e-05;0.393005;2;2441;;
0.390625;32.5496;-1.40076e-05;0.390869;2;2443;;
0.388489;32.5709;-1.5683e-05;0.388702;2;2445;;
0.386353;32.5923;-1.74042e-05;0.386658;2;2447;;
0.384216;32.6137;-1.91284e-05;0.384491;2;2449;;
0.38208;32.635;-2.08435e-05;0.382416;2;2451;;
0.379944;32.6564;-2.25067e-05;0.380188;2;2453;;
0.377808;32.6777;-2.42401e-05;0.378143;2;2455;;
0.375671;32.6991;-2.59644e-05;0.376007;2;2457;;
0.373535;32.7205;-2.771e-05;0.373901;2;2459;;
0.371399;32.7418;-2.93976e-05;0.371826;2;2461;;
0.369263;32.7632;-3.10547e-05;0.369354;2;2463;;
0.367126;32.7845;-3.28552e-05;0.367279;2;2465;;
0.36499;32.8059;-3.45764e-05;0.365112;2;2467;;
0.362854;32.8273;-3.63037e-05;0.363037;2;2469;;
0.360718;32.8486;-3.80402e-05;0.360809;2;2471;;
0.358582;32.87;-3.98285e-05;0.358704;2;2473;;
0.356445;32.8914;-4.16229e-05;0.356598;2;2475;;
0.354309;32.9127;-4.33624e-05;0.354462;2;2477;;
0.352173;32.9341;-4.51721e-05;0.352325;2;2479;;
0.350037;32.9554;-4.69147e-05;0.350189;2;2481;;
0.3479;32.9768;-4.87427e-05;0.348022;2;2483;;
0.345764;32.9982;-5.05066e-05;0.345856;2;2485;;
0.343628;33.0195;-5.23376e-05;0.34375;2;2487;;
0.341492;33.0409;-5.40771e-05;0.341583;2;2489;;
0.339355;33.0623;-5.59387e-05;0.339478;2;2491;;
0.337219;33.0836;-5.77393e-05;0.337372;2;2493;;
0.335083;33.105;-5.96008e-05;0.335205;2;2495;;
0.332947;33.1263;-6.14929e-05;0.333038;2;2497;;
0.330811;33.1477;-6.3385e-05;0.330933;2;2499;;
0.328674;33.1691;-6.52466e-05;0.328766;2;2501;;
0.326538;33.1904;-6.71082e-05;0.326691;2;2503;;
0.324402;33.2118;-6.90613e-05;0.324554;2;2505;;
0.322266;33.2332;-7.09229e-05;0.322357;2;2507;;
0.320129;33.2545;-7.2937e-05;0.320251;2;2509;;
0.317993;33.2759;-7.48291e-05;0.318176;2;2511;;
0.315857;33.2972;-7.69043e-05;0.31604;2;2513;;
0.313721;33.3186;-7.88574e-05;0.313812;2;2515;;
0.311584;33.34;-8.09326e-05;0.311707;2;2517;;
0.309448;33.3613;-8.29163e-05;0.30957;2;2519;;
0.307312;33.3827;-8.49609e-05;0.307404;2;2521;;
0.305176;33.404;-8.70361e-05;0.305298;2;2523;;
0.30304;33.4254;-8.91418e-05;0.303192;2;2525;;
0.300903;33.4468;-9.12476e-05;0.301086;2;2527;;
0.298767;33.4681;-9.33533e-05;0.29892;2;2529;;
0.296631;33.4895;-9.552e-05;0.296753;2;2531;;
0.294495;33.5109;-9.77478e-05;0.294617;2;2533;;
0.292358;33.5322;-9.99756e-05;0.292511;2;2535;;
0.290222;33.5536;-0.000102173;0.290375;2;2537;;
0.288086;33.5749;-0.000104431;0.288177;2;2539;;
0.28595;33.5963;-0.00010672;0.286163;2;2541;;
0.283813;33.6177;-0.000109009;0.283966;2;2543;;
0.281677;33.639;-0.000111389;0.28186;2;2545;;
0.279541;33.6604;-0.000113861;0.279724;2;2547;;
0.277405;33.6818;-0.000116302;0.277618;2;2549;;
0.275269;33.7031;-0.000118744;0.275421;2;2551;;
0.273132;33.7245;-0.000121246;0.273254;2;2553;;
0.270996;33.7458;-0.000123749;0.271118;2;2555;;
0.26886;33.7672;-0.000126434;0.269043;2;2557;;
0.266724;33.7886;-0.000128967;0.266846;2;2559;;
0.264587;33.8099;-0.000131653;0.264801;2;2561;;
0.262451;33.8313;-0.000134369;0.262634;2;2563;;
0.260315;33.8526;-0.000137054;0.260529;2;2565;;
0.258179;33.874;-0.000140015;0.258362;2;2567;;
0.256042;33.8954;-0.000142853;0.256195;2;2569;;
0.253906;33.9167;-0.000145721;0.254059;2;2571;;
0.25177;33.9381;-0.000148651;0.251953;2;2573;;
0.249634;33.9595;-0.000151672;0.249756;2;2575;;
0.247498;33.9808;-0.000154755;0.24765;2;2577;;
0.245361;34.0022;-0.000157806;0.245575;2;2579;;
0.243225;34.0235;-0.000160858;0.243408;2;2581;;
0.241089;34.0449;-0.000164124;0.241272;2;2583;;
0.238953;34.0663;-0.000167175;0.239166;2;2585;;
0.236816;34.0876;-0.000170563;0.23703;2;2587;;
0.23468;34.109;-0.00017395;0.234833;2;2589;;
0.232544;34.1304;-0.000177429;0.232758;2;2591;;
0.230408;34.1517;-0.000180786;0.230621;2;2593;;
0.228271;34.1731;-0.000184387;0.228424;2;2595;;
0.226135;34.1944;-0.000188019;0.226288;2;2597;;
0.223999;34.2158;-0.000191589;0.224213;2;2599;;
0.221863;34.2372;-0.000195374;0.222107;2;2601;;
0.219727;34.2585;-0.000199005;0.219971;2;2603;;
0.21759;34.2799;-0.00020285;0.217834;2;2605;;
0.215454;34.3013;-0.000206696;0.215698;2;2607;;
0.213318;34.3226;-0.000210419;0.213531;2;2609;;
0.211182;34.344;-0.000214417;0.211365;2;2611;;
0.209045;34.3653;-0.000218262;0.20932;2;2613;;
0.206909;34.3867;-0.000222351;0.207123;2;2615;;
0.204773;34.4081;-0.000226379;0.204987;2;2617;;
0.202637;34.4294;-0.000230438;0.202881;2;2619;;
0.2005;34.4508;-0.000234528;0.200745;2;2621;;
0.198364;34.4721;-0.000238678;0.198669;2;2623;;
0.196228;34.4935;-0.000242798;0.196472;2;2625;;
0.194092;34.5149;-0.000247192;0.194366;2;2627;;
0.191956;34.5362;-0.000251373;0.192261;2;2629;;
0.189819;34.5576;-0.000255646;0.190125;2;2631;;
0.187683;34.579;-0.000259918;0.187927;2;2633;;
0.185547;34.6003;-0.000264191;0.185852;2;2635;;
0.183411;34.6217;-0.000268585;0.183716;2;2637;;
0.181274;34.643;-0.000272888;0.18158;2;2639;;
0.179138;34.6644;-0.000277252;0.179443;2;2641;;
0.177002;34.6858;-0.000281586;0.177338;2;2643;;
0.174866;34.7071;-0.00028595;0.175171;2;2645;;
0.172729;34.7285;-0.000290283;0.173065;2;2647;;
0.170593;34.7499;-0.000294708;0.170929;2;2649;;
0.168457;34.7712;-0.000298889;0.168793;2;2651;;
0.166321;34.7926;-0.000303528;0.166351;2;2653;;
0.164185;34.8139;-0.000307739;0.164307;2;2655;;
0.162048;34.8353;-0.000312073;0.162109;2;2657;;
0.159912;34.8567;-0.000316376;0.159943;2;2659;;
0.157776;34.878;-0.000320709;0.157867;2;2661;;
0.15564;34.8994;-0.000325012;0.15567;2;2663;;
0.153503;34.9207;-0.000329254;0.153534;2;2665;;
0.151367;34.9421;-0.000333344;0.151398;2;2667;;
0.149231;34.9635;-0.000337524;0.149292;2;2669;;
0.147095;34.9848;-0.000341553;0.147125;2;2671;;
0.144958;35.0062;-0.000345581;0.145111;2;2673;;
0.142822;35.0276;-0.000349792;0.142883;2;2675;;
0.140686;35.0489;-0.00035376;0.140747;2;2677;;
0.13855;35.0703;-0.000357727;0.138611;2;2679;;
0.136414;35.0916;-0.000361755;0.136475;2;2681;;
0.134277;35.113;-0.000365601;0.134369;2;2683;;
0.132141;35.1344;-0.000369293;0.132233;2;2685;;
0.130005;35.1557;-0.000373016;0.130066;2;2687;;
0.127869;35.1771;-0.00037677;0.127899;2;2689;;
0.125732;35.1985;-0.000380371;0.125793;2;2691;;
0.123596;35.2198;-0.00038385;0.123657;2;2693;;
0.12146;35.2412;-0.000387238;0.12146;2;2695;;
0.119324;35.2625;-0.000390778;0.119385;2;2697;;
0.1171875;35.2839;-0.000393982;0.117249;2;2699;;
0.115051;35.3053;-0.000397186;0.115082;2;2701;;
0.112915;35.3266;-0.000400269;0.112976;2;2703;;
0.110779;35.348;-0.000403473;0.11087;2;2705;;
0.108643;35.3694;-0.000406525;0.108673;2;2707;;
0.106506;35.3907;-0.000409454;0.106567;2;2709;;
0.10437;35.4121;-0.000412231;0.10437;2;2711;;
0.102234;35.4334;-0.0004151;0.102295;2;2713;;
0.100098;35.4548;-0.000417816;0.100128;2;2715;;
0.0979614;35.4762;-0.000420532;0.0980225;2;2717;;
0.0958252;35.4975;-0.000423187;0.0958862;2;2719;;
0.093689;35.5189;-0.000425598;0.0937195;2;2721;;
0.0915527;35.5402;-0.000428101;0.0916138;2;2723;;
0.0894165;35.5616;-0.000430603;0.0894775;2;2725;;
0.0872803;35.583;-0.000432983;0.0873108;2;2727;;
0.085144;35.6043;-0.000435272;0.0852051;2;2729;;
0.0830078;35.6257;-0.0004375;0.0830994;2;2731;;
0.0808716;35.6471;-0.000439514;0.0809021;2;2733;;
0.0787354;35.6684;-0.00044165;0.0787964;2;2735;;
0.0765991;35.6898;-0.000443604;0.0766296;2;2737;;
0.0744629;35.7111;-0.000445404;0.0745544;2;2739;;
0.0723267;35.7325;-0.000447174;0.0723572;2;2741;;
0.0701904;35.7539;-0.000449188;0.0702209;2;2743;;
0.0680542;35.7752;-0.000450867;0.0680542;2;2745;;
0.065918;35.7966;-0.000452606;0.065979;2;2747;;
0.0637817;35.818;-0.000454132;0.0638123;2;2749;;
0.0616455;35.8393;-0.00045575;0.061676;2;2751;;
0.0595093;35.8607;-0.000457306;0.0595703;2;2753;;
0.057373;35.882;-0.00045871;0.0574036;2;2755;;
0.0552368;35.9034;-0.000460083;0.0553284;2;2757;;
0.0531006;35.9248;-0.000461578;0.0531311;2;2759;;
0.0509644;35.9461;-0.00046283;0.0509949;2;2761;;
0.0488281;35.9675;-0.000463959;0.0488922;2;2763;;
0.0466919;35.9888;-0.000465118;0.0467712;2;2765;;
0.0445557;36.0102;-0.000466461;0.044632;2;2767;;
0.0424194;36.0316;-0.000467743;0.04245;2;2769;;
0.0402832;36.0529;-0.000468719;0.0403351;2;2771;;
0.038147;36.0743;-0.000469666;0.0381744;2;2773;;
0.0360107;36.0957;-0.000470642;0.0360504;2;2775;;
0.0338745;36.117;-0.000471497;0.0339355;2;2777;;
0.0317383;36.1384;-0.000472504;0.0317932;2;2779;;
0.0296021;36.1597;-0.00047345;0.02966;2;2781;;
0.0274658;36.1811;-0.000474426;0.0275085;2;2783;;
0.0253296;36.2025;-0.000475464;0.0253784;2;2785;;
0.0231934;36.2238;-0.000476196;0.0232605;2;2787;;
0.0210571;36.2452;-0.000477295;0.021106;2;2789;;
0.0189209;36.2666;-0.000477875;0.0189728;2;2791;;
0.0167847;36.2879;-0.000478638;0.016806;2;2793;;
0.0146484;36.3093;-0.000479675;0.0146912;2;2795;;
0.0125122;36.3306;-0.000480347;0.0125336;2;2797;;
0.010376;36.352;-0.000481049;0.0104218;2;2799;;
0.00823975;36.3734;-0.000481903;0.00827026;2;2801;;
0.00610352;36.3947;-0.000482422;0.00614319;2;2803;;
0.00396729;36.4161;-0.000483063;0.00394287;2;2805;;
0.00183105;36.4375;-0.000483887;0.00184326;2;2807;;
-0.000305176;36.4588;-0.000484589;-0.000283813;2;2809;;
-0.00244141;36.4802;-0.000485443;-0.0024353;2;2811;;
-0.00457764;36.5015;-0.000486023;-0.00454407;2;2813;;
-0.00671387;36.5229;-0.000486816;-0.00670471;2;2815;;
-0.0088501;36.5443;-0.000487457;-0.00882263;2;2817;;
-0.0109863;36.5656;-0.000488098;-0.0109436;2;2819;;
-0.0131226;36.587;-0.000488617;-0.0131012;2;2821;;
-0.0152588;36.6083;-0.000489349;-0.0152161;2;2823;;
-0.017395;36.6297;-0.000489868;-0.0173615;2;2825;;
-0.01953125;36.6511;-0.000490509;-0.019519;2;2827;;
-0.0216675;36.6724;-0.000490845;-0.0216461;2;2829;;
-0.0238037;36.6938;-0.000491425;-0.0237976;2;2831;;
-0.0259399;36.7152;-0.000492035;-0.0259094;2;2833;;
-0.0280762;36.7365;-0.000492706;-0.0280518;2;2835;;
-0.0302124;36.7579;-0.000493286;-0.0301819;2;2837;;
-0.0323486;36.7792;-0.000494049;-0.032309;2;2839;;
-0.0344849;36.8006;-0.00049469;-0.0344604;2;2841;;
-0.0366211;36.822;-0.000495392;-0.0366089;2;2843;;
-0.0387573;36.8433;-0.000495911;-0.0387482;2;2845;;
-0.0408936;36.8647;-0.000496368;-0.0408875;2;2847;;
-0.0430298;36.8861;-0.000496948;-0.0430084;2;2849;;
-0.045166;36.9074;-0.000497742;-0.0451508;2;2851;;
-0.0473022;36.9288;-0.000498383;-0.0472748;2;2853;;
-0.0494385;36.9501;-0.000498871;-0.0494049;2;2855;;
-0.0515747;36.9715;-0.000499268;-0.0515137;2;2857;;
-0.0537109;36.9929;-0.000499878;-0.0537109;2;2859;;
-0.0558472;37.0142;-0.000500488;-0.0558167;2;2861;;
-0.0579834;37.0356;-0.000501099;-0.0579834;2;2863;;
-0.0601196;37.0569;-0.000502014;-0.0600891;2;2865;;
-0.0622559;37.0783;-0.000502625;-0.0622559;2;2867;;
-0.0643921;37.0997;-0.000503235;-0.0643311;2;2869;;
-0.0665283;37.121;-0.00050415;-0.0664673;2;2871;;
-0.0686646;37.1424;-0.000504456;-0.0686035;2;2873;;
-0.0708008;37.1638;-0.000505066;-0.0707703;2;2875;;
-0.072937;37.1851;-0.000505676;-0.0729065;2;2877;;
-0.0750732;37.2065;-0.000506287;-0.0750122;2;2879;;
-0.0772095;37.2278;-0.000506897;-0.0772095;2;2881;;
-0.0793457;37.2492;-0.000507507;-0.0792847;2;2883;;
-0.0814819;37.2706;-0.000508423;-0.0814209;2;2885;;
-0.0836182;37.2919;-0.000509338;-0.0836182;2;2887;;
-0.0857544;37.3133;-0.000509949;-0.0856934;2;2889;;
-0.0878906;37.3347;-0.000510864;-0.0878601;2;2891;;
-0.0900269;37.356;-0.000511475;-0.0899963;2;2893;;
-0.0921631;37.3774;-0.00051239;-0.0921326;2;2895;;
-0.0942993;37.3987;-0.000513;-0.0942688;2;2897;;
-0.0964355;37.4201;-0.000513611;-0.0963745;2;2899;;
-0.0985718;37.4415;-0.000514221;-0.0985413;2;2901;;
-0.100708;37.4628;-0.000515442;-0.100616;2;2903;;
-0.102844;37.4842;-0.000515747;-0.102753;2;2905;;
-0.10498;37.5056;-0.000516663;-0.104889;2;2907;;
-0.107117;37.5269;-0.000517578;-0.107086;2;2909;;
-0.109253;37.5483;-0.000518188;-0.109131;2;2911;;
-0.111389;37.5696;-0.000519104;-0.111298;2;2913;;
-0.113525;37.591;-0.000519714;-0.113434;2;2915;;
-0.115662;37.6124;-0.000520325;-0.115631;2;2917;;
-0.117798;37.6337;-0.00052124;-0.117676;2;2919;;
-0.119934;37.6551;-0.000522156;-0.119843;2;2921;;
-0.12207;37.6764;-0.000523071;-0.121979;2;2923;;
-0.124207;37.6978;-0.000523682;-0.124084;2;2925;;
-0.126343;37.7192;-0.000524597;-0.126312;2;2927;;
-0.128479;37.7405;-0.000525513;-0.128418;2;2929;;
-0.130615;37.7619;-0.000526428;-0.130554;2;2931;;
-0.132751;37.7833;-0.000527039;-0.13266;2;2933;;
-0.134888;37.8046;-0.000527954;-0.134796;2;2935;;
-0.137024;37.826;-0.00052887;-0.136993;2;2937;;
-0.13916;37.8473;-0.00053009;-0.139069;2;2939;;
-0.141296;37.8687;-0.000530701;-0.141174;2;2941;;
-0.143433;37.8901;-0.000531311;-0.143341;2;2943;;
-0.145569;37.9114;-0.000532532;-0.145508;2;2945;;
-0.147705;37.9328;-0.000533142;-0.147583;2;2947;;
-0.149841;37.9542;-0.000534058;-0.14978;2;2949;;
-0.151978;37.9755;-0.000534973;-0.151886;2;2951;;
-0.154114;37.9969;-0.000535889;-0.153992;2;2953;;
-0.15625;38.0182;-0.000536804;-0.156158;2;2955;;
-0.158386;38.0396;-0.00053772;-0.158264;2;2957;;
-0.160522;38.061;-0.000538635;-0.1604;2;2959;;
-0.162659;38.0823;-0.000539856;-0.162506;2;2961;;
-0.164795;38.1037;-0.000540466;-0.164642;2;2963;;
-0.166931;38.125;-0.000541382;-0.16687;2;2965;;
-0.169067;38.1464;-0.000542297;-0.168854;2;2967;;
-0.171204;38.1678;-0.000543518;-0.171112;2;2969;;
-0.17334;38.1891;-0.000544434;-0.173218;2;2971;;
-0.175476;38.2105;-0.000545349;-0.175354;2;2973;;
-0.177612;38.2319;-0.00054657;-0.17746;2;2975;;
-0.179749;38.2532;-0.000547485;-0.179596;2;2977;;
-0.181885;38.2746;-0.000548401;-0.181732;2;2979;;
-0.184021;38.2959;-0.000549316;-0.183868;2;2981;;
-0.186157;38.3173;-0.000550537;-0.186035;2;2983;;
-0.188293;38.3387;-0.000551147;-0.188171;2;2985;;
-0.19043;38.36;-0.000552063;-0.190277;2;2987;;
-0.192566;38.3814;-0.000553284;-0.192474;2;2989;;
-0.194702;38.4028;-0.000553894;-0.19455;2;2991;;
-0.196838;38.4241;-0.000555115;-0.196686;2;2993;;
-0.198975;38.4455;-0.00055603;-0.198822;2;2995;;
-0.198975;38.4668;-0.000553284;-0.198822;2;2997;;
-0.197906;38.4775;-0.000551453;-0.197723;2;2998;;