File: Laboratorio 2/Verificar Equacao de Randles Sevcik/CV_50 mV_Ferri_ferro.txt
Potential applied (V);Time (s);WE(1).Current (A);WE(1).Potential (V);Scan;Index;Q+;Q-;Current range
-0.198975;6.48016;-0.000233368;-0.198792;1;1;0.00114686;-0.0031123;1 mA
-0.193634;6.58697;-0.000229858;-0.193512;1;6;0.00114686;-0.0031123;1 mA
-0.188293;6.69378;-0.000226685;-0.188171;1;11;0.00114686;-0.0031123;1 mA
-0.182953;6.80059;-0.000223969;-0.1828;1;16;0.00114686;-0.0031123;1 mA
-0.177612;6.9074;-0.000221039;-0.177521;1;21;0.00114686;-0.0031123;1 mA
-0.172272;7.01421;-0.000218445;-0.17218;1;26;0.00114686;-0.0031123;1 mA
-0.166931;7.12102;-0.000215851;-0.166809;1;31;0.00114686;-0.0031123;1 mA
-0.161591;7.22783;-0.000213226;-0.161499;1;36;0.00114686;-0.0031123;1 mA
-0.15625;7.33464;-0.000210876;-0.156219;1;41;0.00114686;-0.0031123;1 mA
-0.150909;7.44145;-0.000208679;-0.150787;1;46;0.00114686;-0.0031123;1 mA
-0.145569;7.54826;-0.000206238;-0.145508;1;51;0.00114686;-0.0031123;1 mA
-0.140228;7.65507;-0.000203766;-0.140106;1;56;0.00114686;-0.0031123;1 mA
-0.134888;7.76188;-0.000201447;-0.134827;1;61;0.00114686;-0.0031123;1 mA
-0.129547;7.86869;-0.000199127;-0.129456;1;66;0.00114686;-0.0031123;1 mA
-0.124207;7.9755;-0.000197083;-0.124176;1;71;0.00114686;-0.0031123;1 mA
-0.118866;8.08231;-0.000194946;-0.118805;1;76;0.00114686;-0.0031123;1 mA
-0.113525;8.18912;-0.000192688;-0.113434;1;81;0.00114686;-0.0031123;1 mA
-0.108185;8.29593;-0.000190491;-0.108124;1;86;0.00114686;-0.0031123;1 mA
-0.102844;8.40274;-0.000188263;-0.102753;1;91;0.00114686;-0.0031123;1 mA
-0.0975037;8.50955;-0.000186157;-0.0974121;1;96;0.00114686;-0.0031123;1 mA
-0.0921631;8.61636;-0.000184082;-0.0921021;1;101;0.00114686;-0.0031123;1 mA
-0.0868225;8.72317;-0.000181915;-0.086731;1;106;0.00114686;-0.0031123;1 mA
-0.0814819;8.82998;-0.000179901;-0.0814209;1;111;0.00114686;-0.0031123;1 mA
-0.0761414;8.93679;-0.000177917;-0.0760803;1;116;0.00114686;-0.0031123;1 mA
-0.0708008;9.0436;-0.000175842;-0.0707092;1;121;0.00114686;-0.0031123;1 mA
-0.0654602;9.15041;-0.000173676;-0.0654297;1;126;0.00114686;-0.0031123;1 mA
-0.0601196;9.25722;-0.000171661;-0.0600891;1;131;0.00114686;-0.0031123;1 mA
-0.0547791;9.36403;-0.000169739;-0.054718;1;136;0.00114686;-0.0031123;1 mA
-0.0494385;9.47084;-0.000167633;-0.0494141;1;141;0.00114686;-0.0031123;1 mA
-0.0440979;9.57765;-0.000165588;-0.0440674;1;146;0.00114686;-0.0031123;1 mA
-0.0387573;9.68446;-0.000163544;-0.0387299;1;151;0.00114686;-0.0031123;1 mA
-0.0334167;9.79127;-0.000161682;-0.0333832;1;156;0.00114686;-0.0031123;1 mA
-0.0280762;9.89808;-0.00015979;-0.0280426;1;161;0.00114686;-0.0031123;1 mA
-0.0227356;10.0049;-0.000157806;-0.0227112;1;166;0.00114686;-0.0031123;1 mA
-0.017395;10.1117;-0.000155731;-0.0173889;1;171;0.00114686;-0.0031123;1 mA
-0.0120544;10.2185;-0.000153656;-0.0120544;1;176;0.00114686;-0.0031123;1 mA
-0.00671387;10.3253;-0.000151733;-0.00670471;1;181;0.00114686;-0.0031123;1 mA
-0.00137329;10.4321;-0.000149719;-0.00136108;1;186;0.00114686;-0.0031123;1 mA
0.00396729;10.5389;-0.000147461;0.00397949;1;191;0.00114686;-0.0031123;1 mA
0.00930786;10.6457;-0.000145447;0.00934448;1;196;0.00114686;-0.0031123;1 mA
0.0146484;10.7526;-0.000143433;0.0146942;1;201;0.00114686;-0.0031123;1 mA
0.019989;10.8594;-0.000141296;0.0200378;1;206;0.00114686;-0.0031123;1 mA
0.0253296;10.9662;-0.00013913;0.0253784;1;211;0.00114686;-0.0031123;1 mA
0.0306702;11.073;-0.000136993;0.0307068;1;216;0.00114686;-0.0031123;1 mA
0.0360107;11.1798;-0.000134827;0.0360596;1;221;0.00114686;-0.0031123;1 mA
0.0413513;11.2866;-0.00013266;0.0414032;1;226;0.00114686;-0.0031123;1 mA
0.0466919;11.3934;-0.000130249;0.0467621;1;231;0.00114686;-0.0031123;1 mA
0.0520325;11.5002;-0.00012796;0.0520325;1;236;0.00114686;-0.0031123;1 mA
0.057373;11.607;-0.000125488;0.057373;1;241;0.00114686;-0.0031123;1 mA
0.0627136;11.7138;-0.000123077;0.0627136;1;246;0.00114686;-0.0031123;1 mA
0.0680542;11.8207;-0.000120239;0.0681152;1;251;0.00114686;-0.0031123;1 mA
0.0733948;11.9275;-0.000117432;0.0734253;1;256;0.00114686;-0.0031123;1 mA
0.0787354;12.0343;-0.000114532;0.0787964;1;261;0.00114686;-0.0031123;1 mA
0.0840759;12.1411;-0.000111389;0.0841064;1;266;0.00114686;-0.0031123;1 mA
0.0894165;12.2479;-0.000108276;0.089447;1;271;0.00114686;-0.0031123;1 mA
0.0947571;12.3547;-0.000104736;0.0948181;1;276;0.00114686;-0.0031123;1 mA
0.100098;12.4615;-0.000101166;0.100128;1;281;0.00114686;-0.0031123;1 mA
0.105438;12.5683;-9.73206e-05;0.105469;1;286;0.00114686;-0.0031123;1 mA
0.110779;12.6751;-9.29565e-05;0.11087;1;291;0.00114686;-0.0031123;100 µA
0.116119;12.7819;-8.84399e-05;0.11615;1;296;0.00114686;-0.0031123;100 µA
0.12146;12.8888;-8.34656e-05;0.121582;1;301;0.00114686;-0.0031123;100 µA
0.126801;12.9956;-7.81555e-05;0.126892;1;306;0.00114686;-0.0031123;100 µA
0.132141;13.1024;-7.24182e-05;0.132233;1;311;0.00114686;-0.0031123;100 µA
0.137482;13.2092;-6.63452e-05;0.137573;1;316;0.00114686;-0.0031123;100 µA
0.142822;13.316;-5.96924e-05;0.142853;1;321;0.00114686;-0.0031123;100 µA
0.148163;13.4228;-5.27344e-05;0.148254;1;326;0.00114686;-0.0031123;100 µA
0.153503;13.5296;-4.49463e-05;0.153595;1;331;0.00114686;-0.0031123;100 µA
0.158844;13.6364;-3.68378e-05;0.158905;1;336;0.00114686;-0.0031123;100 µA
0.164185;13.7432;-2.81921e-05;0.164276;1;341;0.00114686;-0.0031123;100 µA
0.169525;13.85;-1.90765e-05;0.169586;1;346;0.00114686;-0.0031123;100 µA
0.174866;13.9569;-9.85413e-06;0.174927;1;351;0.00114686;-0.0031123;100 µA
0.180206;14.0637;-8.10242e-07;0.180267;1;356;0.00114686;-0.0031123;10 µA
0.185547;14.1705;8.14819e-06;0.185516;1;361;0.00114686;-0.0031123;10 µA
0.190887;14.2773;1.71936e-05;0.190735;1;366;0.00114686;-0.0031123;10 µA
0.196228;14.3841;2.60193e-05;0.195892;1;371;0.00114686;-0.0031123;10 µA
0.201569;14.4909;3.47443e-05;0.201569;1;376;0.00114686;-0.0031123;100 µA
0.206909;14.5977;4.30847e-05;0.206909;1;381;0.00114686;-0.0031123;100 µA
0.21225;14.7045;5.12085e-05;0.21225;1;386;0.00114686;-0.0031123;100 µA
0.21759;14.8113;5.89294e-05;0.21756;1;391;0.00114686;-0.0031123;100 µA
0.222931;14.9181;6.63452e-05;0.22287;1;396;0.00114686;-0.0031123;100 µA
0.228271;15.025;7.33948e-05;0.22821;1;401;0.00114686;-0.0031123;100 µA
0.233612;15.1318;8.02307e-05;0.233521;1;406;0.00114686;-0.0031123;100 µA
0.238953;15.2386;8.63953e-05;0.238892;1;411;0.00114686;-0.0031123;100 µA
0.244293;15.3454;9.2041e-05;0.244232;1;416;0.00114686;-0.0031123;100 µA
0.249634;15.4522;9.7229e-05;0.249573;1;421;0.00114686;-0.0031123;100 µA
0.254974;15.559;0.00010199;0.254913;1;426;0.00114686;-0.0031123;100 µA
0.260315;15.6658;0.000106293;0.260254;1;431;0.00114686;-0.0031123;100 µA
0.265656;15.7726;0.000110138;0.265594;1;436;0.00114686;-0.0031123;100 µA
0.270996;15.8794;0.000113708;0.270905;1;441;0.00114686;-0.0031123;100 µA
0.276337;15.9862;0.000116943;0.276245;1;446;0.00114686;-0.0031123;100 µA
0.281677;16.0931;0.000119751;0.281586;1;451;0.00114686;-0.0031123;100 µA
0.287018;16.1999;0.000122253;0.286896;1;456;0.00114686;-0.0031123;100 µA
0.292358;16.3067;0.000124481;0.292267;1;461;0.00114686;-0.0031123;100 µA
0.297699;16.4135;0.000126312;0.297607;1;466;0.00114686;-0.0031123;100 µA
0.30304;16.5203;0.000127899;0.302948;1;471;0.00114686;-0.0031123;100 µA
0.30838;16.6271;0.000129242;0.308258;1;476;0.00114686;-0.0031123;100 µA
0.313721;16.7339;0.000130402;0.31366;1;481;0.00114686;-0.0031123;100 µA
0.319061;16.8407;0.000131226;0.319;1;486;0.00114686;-0.0031123;100 µA
0.324402;16.9475;0.000131866;0.324341;1;491;0.00114686;-0.0031123;100 µA
0.329742;17.0543;0.000132233;0.329651;1;496;0.00114686;-0.0031123;100 µA
0.335083;17.1612;0.000132538;0.335052;1;501;0.00114686;-0.0031123;100 µA
0.340424;17.268;0.000132629;0.340363;1;506;0.00114686;-0.0031123;100 µA
0.345764;17.3748;0.000132416;0.345673;1;511;0.00114686;-0.0031123;100 µA
0.351105;17.4816;0.000132202;0.351044;1;516;0.00114686;-0.0031123;100 µA
0.356445;17.5884;0.000131775;0.356415;1;521;0.00114686;-0.0031123;100 µA
0.361786;17.6952;0.000131317;0.361694;1;526;0.00114686;-0.0031123;100 µA
0.367126;17.802;0.000130707;0.367065;1;531;0.00114686;-0.0031123;100 µA
0.372467;17.9088;0.000130005;0.372437;1;536;0.00114686;-0.0031123;100 µA
0.377808;18.0156;0.000129242;0.377777;1;541;0.00114686;-0.0031123;100 µA
0.383148;18.1224;0.000128387;0.383118;1;546;0.00114686;-0.0031123;100 µA
0.388489;18.2293;0.000127411;0.388428;1;551;0.00114686;-0.0031123;100 µA
0.393829;18.3361;0.000126526;0.393768;1;556;0.00114686;-0.0031123;100 µA
0.39917;18.4429;0.000125458;0.39917;1;561;0.00114686;-0.0031123;100 µA
0.40451;18.5497;0.000124451;0.40451;1;566;0.00114686;-0.0031123;100 µA
0.409851;18.6565;0.000123383;0.40979;1;571;0.00114686;-0.0031123;100 µA
0.415192;18.7633;0.000122314;0.415161;1;576;0.00114686;-0.0031123;100 µA
0.420532;18.8701;0.000121246;0.420471;1;581;0.00114686;-0.0031123;100 µA
0.425873;18.9769;0.000120148;0.425842;1;586;0.00114686;-0.0031123;100 µA
0.431213;19.0837;0.000119049;0.431183;1;591;0.00114686;-0.0031123;100 µA
0.436554;19.1905;0.000117981;0.436554;1;596;0.00114686;-0.0031123;100 µA
0.441895;19.2974;0.000116913;0.441864;1;601;0.00114686;-0.0031123;100 µA
0.447235;19.4042;0.000115875;0.447174;1;606;0.00114686;-0.0031123;100 µA
0.452576;19.511;0.000114868;0.452545;1;611;0.00114686;-0.0031123;100 µA
0.457916;19.6178;0.000113892;0.457916;1;616;0.00114686;-0.0031123;100 µA
0.463257;19.7246;0.000112915;0.463287;1;621;0.00114686;-0.0031123;100 µA
0.468597;19.8314;0.000111969;0.468567;1;626;0.00114686;-0.0031123;100 µA
0.473938;19.9382;0.000111053;0.473907;1;631;0.00114686;-0.0031123;100 µA
0.479279;20.045;0.000110199;0.479218;1;636;0.00114686;-0.0031123;100 µA
0.484619;20.1518;0.000109406;0.484619;1;641;0.00114686;-0.0031123;100 µA
0.48996;20.2586;0.000108612;0.48996;1;646;0.00114686;-0.0031123;100 µA
0.4953;20.3655;0.000107849;0.495331;1;651;0.00114686;-0.0031123;100 µA
0.500641;20.4723;0.000107147;0.500641;1;656;0.00114686;-0.0031123;100 µA
0.505981;20.5791;0.000106476;0.505981;1;661;0.00114686;-0.0031123;100 µA
0.511322;20.6859;0.000105835;0.511322;1;666;0.00114686;-0.0031123;100 µA
0.516663;20.7927;0.000105255;0.516724;1;671;0.00114686;-0.0031123;100 µA
0.522003;20.8995;0.000104675;0.522034;1;676;0.00114686;-0.0031123;100 µA
0.527344;21.0063;0.000104187;0.527374;1;681;0.00114686;-0.0031123;100 µA
0.532684;21.1131;0.000103699;0.532715;1;686;0.00114686;-0.0031123;100 µA
0.538025;21.2199;0.000103271;0.538055;1;691;0.00114686;-0.0031123;100 µA
0.543365;21.3267;0.000102844;0.543365;1;696;0.00114686;-0.0031123;100 µA
0.548706;21.4336;0.000102478;0.548706;1;701;0.00114686;-0.0031123;100 µA
0.554047;21.5404;0.000102173;0.554077;1;706;0.00114686;-0.0031123;100 µA
0.559387;21.6472;0.000101868;0.559418;1;711;0.00114686;-0.0031123;100 µA
0.564728;21.754;0.000101593;0.564789;1;716;0.00114686;-0.0031123;100 µA
0.570068;21.8608;0.000101379;0.570129;1;721;0.00114686;-0.0031123;100 µA
0.575409;21.9676;0.000101196;0.57547;1;726;0.00114686;-0.0031123;100 µA
0.58075;22.0744;0.000101013;0.58078;1;731;0.00114686;-0.0031123;100 µA
0.58609;22.1812;0.000100891;0.58609;1;736;0.00114686;-0.0031123;100 µA
0.591431;22.288;0.0001008;0.591492;1;741;0.00114686;-0.0031123;100 µA
0.596771;22.3948;0.000100769;0.596832;1;746;0.00114686;-0.0031123;100 µA
0.597839;22.5017;9.86938e-05;0.597778;1;751;0.00114686;-0.0031123;100 µA
0.592499;22.6085;9.51538e-05;0.59256;1;756;0.00114686;-0.0031123;100 µA
0.587158;22.7153;9.22852e-05;0.587219;1;761;0.00114686;-0.0031123;100 µA
0.581818;22.8221;8.96606e-05;0.581909;1;766;0.00114686;-0.0031123;100 µA
0.576477;22.9289;8.71277e-05;0.576538;1;771;0.00114686;-0.0031123;100 µA
0.571136;23.0357;8.48083e-05;0.571167;1;776;0.00114686;-0.0031123;100 µA
0.565796;23.1425;8.255e-05;0.565857;1;781;0.00114686;-0.0031123;100 µA
0.560455;23.2493;8.03528e-05;0.560516;1;786;0.00114686;-0.0031123;100 µA
0.555115;23.3561;7.82166e-05;0.555145;1;791;0.00114686;-0.0031123;100 µA
0.549774;23.4629;7.61414e-05;0.549805;1;796;0.00114686;-0.0031123;100 µA
0.544434;23.5698;7.41882e-05;0.544434;1;801;0.00114686;-0.0031123;100 µA
0.539093;23.6766;7.21436e-05;0.539154;1;806;0.00114686;-0.0031123;100 µA
0.533752;23.7834;7.01904e-05;0.533813;1;811;0.00114686;-0.0031123;100 µA
0.528412;23.8902;6.82983e-05;0.528503;1;816;0.00114686;-0.0031123;100 µA
0.523071;23.997;6.640625E-05;0.523071;1;821;0.00114686;-0.0031123;100 µA
0.517731;24.1038;6.45447e-05;0.517761;1;826;0.00114686;-0.0031123;100 µA
0.51239;24.2106;6.26831e-05;0.512421;1;831;0.00114686;-0.0031123;100 µA
0.50705;24.3174;6.08826e-05;0.507141;1;836;0.00114686;-0.0031123;100 µA
0.501709;24.4242;5.91125e-05;0.50174;1;841;0.00114686;-0.0031123;100 µA
0.496368;24.531;5.7312e-05;0.496429;1;846;0.00114686;-0.0031123;100 µA
0.491028;24.6379;5.5542e-05;0.491089;1;851;0.00114686;-0.0031123;100 µA
0.485687;24.7447;5.38025e-05;0.485718;1;856;0.00114686;-0.0031123;100 µA
0.480347;24.8515;5.2063e-05;0.480377;1;861;0.00114686;-0.0031123;100 µA
0.475006;24.9583;5.03235e-05;0.475067;1;866;0.00114686;-0.0031123;100 µA
0.469666;25.0651;4.85809e-05;0.469666;1;871;0.00114686;-0.0031123;100 µA
0.464325;25.1719;4.6875E-05;0.464325;1;876;0.00114686;-0.0031123;100 µA
0.458984;25.2787;4.51721e-05;0.459076;1;881;0.00114686;-0.0031123;100 µA
0.453644;25.3855;4.34418e-05;0.453705;1;886;0.00114686;-0.0031123;100 µA
0.448303;25.4923;4.17999e-05;0.448334;1;891;0.00114686;-0.0031123;100 µA
0.442963;25.5991;4.0097e-05;0.443024;1;896;0.00114686;-0.0031123;100 µA
0.437622;25.706;3.84277e-05;0.437683;1;901;0.00114686;-0.0031123;100 µA
0.432281;25.8128;3.6734e-05;0.432373;1;906;0.00114686;-0.0031123;100 µA
0.426941;25.9196;3.50708e-05;0.427002;1;911;0.00114686;-0.0031123;100 µA
0.4216;26.0264;3.33862e-05;0.421722;1;916;0.00114686;-0.0031123;100 µA
0.41626;26.1332;3.17047e-05;0.416321;1;921;0.00114686;-0.0031123;100 µA
0.410919;26.24;3.00262e-05;0.411072;1;926;0.00114686;-0.0031123;100 µA
0.405579;26.3468;2.83264e-05;0.405701;1;931;0.00114686;-0.0031123;100 µA
0.400238;26.4536;2.66479e-05;0.40036;1;936;0.00114686;-0.0031123;100 µA
0.394897;26.5604;2.48993e-05;0.394989;1;941;0.00114686;-0.0031123;100 µA
0.389557;26.6672;2.32635e-05;0.389648;1;946;0.00114686;-0.0031123;100 µA
0.384216;26.7741;2.15393e-05;0.384308;1;951;0.00114686;-0.0031123;100 µA
0.378876;26.8809;1.9873e-05;0.378937;1;956;0.00114686;-0.0031123;100 µA
0.373535;26.9877;1.8103e-05;0.373596;1;961;0.00114686;-0.0031123;100 µA
0.368195;27.0945;1.63086e-05;0.368286;1;966;0.00114686;-0.0031123;100 µA
0.362854;27.2013;1.45538e-05;0.362946;1;971;0.00114686;-0.0031123;100 µA
0.357513;27.3081;1.27716e-05;0.357605;1;976;0.00114686;-0.0031123;100 µA
0.352173;27.4149;1.09253e-05;0.352264;1;981;0.00114686;-0.0031123;100 µA
0.346832;27.5217;9.07288e-06;0.346924;1;986;0.00114686;-0.0031123;100 µA
0.341492;27.6285;7.11365e-06;0.341431;1;991;0.00114686;-0.0031123;10 µA
0.336151;27.7353;5.17578e-06;0.336182;1;996;0.00114686;-0.0031123;10 µA
0.330811;27.8422;3.18878e-06;0.330872;1;1001;0.00114686;-0.0031123;10 µA
0.32547;27.949;1.21704e-06;0.325531;1;1006;0.00114686;-0.0031123;10 µA
0.320129;28.0558;-8.72803e-07;0.32019;1;1011;0.00114686;-0.0031123;10 µA
0.314789;28.1626;-3.15491e-06;0.315247;1;1016;0.00114686;-0.0031123;1 µA
0.309448;28.2694;-5.37109e-06;0.309509;1;1021;0.00114686;-0.0031123;10 µA
0.304108;28.3762;-7.69958e-06;0.30423;1;1026;0.00114686;-0.0031123;10 µA
0.298767;28.483;-1.02295e-05;0.298889;1;1031;0.00114686;-0.0031123;10 µA
0.293427;28.5898;-1.2793e-05;0.29361;1;1036;0.00114686;-0.0031123;10 µA
0.288086;28.6966;-1.56189e-05;0.288269;1;1041;0.00114686;-0.0031123;10 µA
0.282745;28.8034;-1.85699e-05;0.282959;1;1046;0.00114686;-0.0031123;10 µA
0.277405;28.9103;-2.16888e-05;0.277618;1;1051;0.00114686;-0.0031123;10 µA
0.272064;29.0171;-2.51984e-05;0.272369;1;1056;0.00114686;-0.0031123;10 µA
0.266724;29.1239;-2.87933e-05;0.267059;1;1061;0.00114686;-0.0031123;10 µA
0.261383;29.2307;-3.27942e-05;0.261444;1;1066;0.00114686;-0.0031123;100 µA
0.256042;29.3375;-3.70544e-05;0.256073;1;1071;0.00114686;-0.0031123;100 µA
0.250702;29.4443;-4.1748e-05;0.250824;1;1076;0.00114686;-0.0031123;100 µA
0.245361;29.5511;-4.67865e-05;0.245483;1;1081;0.00114686;-0.0031123;100 µA
0.240021;29.6579;-5.22461e-05;0.240112;1;1086;0.00114686;-0.0031123;100 µA
0.23468;29.7647;-5.81055e-05;0.234741;1;1091;0.00114686;-0.0031123;100 µA
0.22934;29.8715;-6.46057e-05;0.22937;1;1096;0.00114686;-0.0031123;100 µA
0.223999;29.9784;-7.14111e-05;0.224091;1;1101;0.00114686;-0.0031123;100 µA
0.218658;30.0852;-7.87964e-05;0.21875;1;1106;0.00114686;-0.0031123;100 µA
0.213318;30.192;-8.65173e-05;0.21347;1;1111;0.00114686;-0.0031123;100 µA
0.207977;30.2988;-9.47571e-05;0.20813;1;1116;0.00114686;-0.0031123;100 µA
0.202637;30.4056;-0.000103424;0.202789;1;1121;0.00114686;-0.0031123;100 µA
0.197296;30.5124;-0.00011261;0.197449;1;1126;0.00114686;-0.0031123;100 µA
0.191956;30.6192;-0.000121857;0.192108;1;1131;0.00114686;-0.0031123;100 µA
0.186615;30.726;-0.00013147;0.186768;1;1136;0.00114686;-0.0031123;100 µA
0.181274;30.8328;-0.000141113;0.181458;1;1141;0.00114686;-0.0031123;100 µA
0.175934;30.9396;-0.000150848;0.176056;1;1146;0.00114686;-0.0031123;100 µA
0.170593;31.0465;-0.000160522;0.170776;1;1151;0.00114686;-0.0031123;100 µA
0.165253;31.1533;-0.000170197;0.165436;1;1156;0.00114686;-0.0031123;100 µA
0.159912;31.2601;-0.000179718;0.160126;1;1161;0.00114686;-0.0031123;100 µA
0.154572;31.3669;-0.000189026;0.154755;1;1166;0.00114686;-0.0031123;100 µA
0.149231;31.4737;-0.000198181;0.149414;1;1171;0.00114686;-0.0031123;100 µA
0.14389;31.5805;-0.000207397;0.144043;1;1176;0.00114686;-0.0031123;100 µA
0.13855;31.6873;-0.000216248;0.138733;1;1181;0.00114686;-0.0031123;100 µA
0.133209;31.7941;-0.000223328;0.133392;1;1186;0.00114686;-0.0031123;100 µA
0.127869;31.9009;-0.000229523;0.128113;1;1191;0.00114686;-0.0031123;100 µA
0.122528;32.0077;-0.000234985;0.122772;1;1196;0.00114686;-0.0031123;100 µA
0.1171875;32.1146;-0.000240051;0.117401;1;1201;0.00114686;-0.0031123;100 µA
0.111847;32.2214;-0.000244263;0.112122;1;1206;0.00114686;-0.0031123;100 µA
0.106506;32.3282;-0.000248199;0.10675;1;1211;0.00114686;-0.0031123;100 µA
0.101166;32.435;-0.000251556;0.10141;1;1216;0.00114686;-0.0031123;100 µA
0.0958252;32.5418;-0.000254791;0.0960693;1;1221;0.00114686;-0.0031123;100 µA
0.0904846;32.6486;-0.000257111;0.0907288;1;1226;0.00114686;-0.0031123;100 µA
0.085144;32.7554;-0.000259125;0.0854492;1;1231;0.00114686;-0.0031123;100 µA
0.0798035;32.8622;-0.000260681;0.0800476;1;1236;0.00114686;-0.0031123;100 µA
0.0744629;32.969;-0.000262054;0.0747375;1;1241;0.00114686;-0.0031123;100 µA
0.0691223;33.0758;-0.000262909;0.069397;1;1246;0.00114686;-0.0031123;100 µA
0.0637817;33.1827;-0.000263489;0.0640564;1;1251;0.00114686;-0.0031123;100 µA
0.0584412;33.2895;-0.000263702;0.0586853;1;1256;0.00114686;-0.0031123;100 µA
0.0531006;33.3963;-0.000264069;0.0534058;1;1261;0.00114686;-0.0031123;100 µA
0.04776;33.5031;-0.000263916;0.0478271;1;1266;0.00114686;-0.0031123;100 µA
0.0424194;33.6099;-0.000263733;0.0424927;1;1271;0.00114686;-0.0031123;100 µA
0.0370789;33.7167;-0.000263519;0.0371582;1;1276;0.00114686;-0.0031123;100 µA
0.0317383;33.8235;-0.000263031;0.0318115;1;1281;0.00114686;-0.0031123;100 µA
0.0263977;33.9303;-0.000262421;0.0264587;1;1286;0.00114686;-0.0031123;100 µA
0.0210571;34.0371;-0.00026181;0.0211121;1;1291;0.00114686;-0.0031123;100 µA
0.0157166;34.1439;-0.000261322;0.0157654;1;1296;0.00114686;-0.0031123;100 µA
0.010376;34.2508;-0.000260651;0.0104279;1;1301;0.00114686;-0.0031123;100 µA
0.0050354;34.3576;-0.000259766;0.005078125;1;1306;0.00114686;-0.0031123;100 µA
-0.000305176;34.4644;-0.000258972;-0.000296021;1;1311;0.00114686;-0.0031123;100 µA
-0.00564575;34.5712;-0.000258331;-0.00560608;1;1316;0.00114686;-0.0031123;100 µA
-0.0109863;34.678;-0.000257538;-0.0109467;1;1321;0.00114686;-0.0031123;100 µA
-0.0163269;34.7848;-0.000256836;-0.0162872;1;1326;0.00114686;-0.0031123;100 µA
-0.0216675;34.8916;-0.000256012;-0.0216278;1;1331;0.00114686;-0.0031123;100 µA
-0.0270081;34.9984;-0.000255341;-0.0269592;1;1336;0.00114686;-0.0031123;100 µA
-0.0323486;35.1052;-0.000254517;-0.0322937;1;1341;0.00114686;-0.0031123;100 µA
-0.0376892;35.212;-0.000253784;-0.0376526;1;1346;0.00114686;-0.0031123;100 µA
-0.0430298;35.3189;-0.000253082;-0.042981;1;1351;0.00114686;-0.0031123;100 µA
-0.0483704;35.4257;-0.000252502;-0.0483185;1;1356;0.00114686;-0.0031123;100 µA
-0.0537109;35.5325;-0.000251831;-0.0534363;1;1361;0.00114686;-0.0031123;100 µA
-0.0590515;35.6393;-0.000251251;-0.0587769;1;1366;0.00114686;-0.0031123;100 µA
-0.0643921;35.7461;-0.000250671;-0.0641479;1;1371;0.00114686;-0.0031123;100 µA
-0.0697327;35.8529;-0.000250061;-0.069458;1;1376;0.00114686;-0.0031123;100 µA
-0.0750732;35.9597;-0.00024942;-0.0748596;1;1381;0.00114686;-0.0031123;100 µA
-0.0804138;36.0665;-0.00024881;-0.0802002;1;1386;0.00114686;-0.0031123;100 µA
-0.0857544;36.1733;-0.000248291;-0.0855103;1;1391;0.00114686;-0.0031123;100 µA
-0.091095;36.2801;-0.000247803;-0.0908203;1;1396;0.00114686;-0.0031123;100 µA
-0.0964355;36.387;-0.000247345;-0.0961304;1;1401;0.00114686;-0.0031123;100 µA
-0.101776;36.4938;-0.000246979;-0.101471;1;1406;0.00114686;-0.0031123;100 µA
-0.107117;36.6006;-0.000246613;-0.106812;1;1411;0.00114686;-0.0031123;100 µA
-0.112457;36.7074;-0.000246307;-0.112152;1;1416;0.00114686;-0.0031123;100 µA
-0.117798;36.8142;-0.000245941;-0.117462;1;1421;0.00114686;-0.0031123;100 µA
-0.123138;36.921;-0.000245514;-0.122833;1;1426;0.00114686;-0.0031123;100 µA
-0.128479;37.0278;-0.000245453;-0.128143;1;1431;0.00114686;-0.0031123;100 µA
-0.13382;37.1346;-0.000244995;-0.133514;1;1436;0.00114686;-0.0031123;100 µA
-0.13916;37.2414;-0.000244934;-0.138824;1;1441;0.00114686;-0.0031123;100 µA
-0.144501;37.3482;-0.000244659;-0.144196;1;1446;0.00114686;-0.0031123;100 µA
-0.149841;37.4551;-0.000244751;-0.149506;1;1451;0.00114686;-0.0031123;100 µA
-0.155182;37.5619;-0.00024472;-0.154816;1;1456;0.00114686;-0.0031123;100 µA
-0.160522;37.6687;-0.000244141;-0.160156;1;1461;0.00114686;-0.0031123;100 µA
-0.165863;37.7755;-0.000243988;-0.165558;1;1466;0.00114686;-0.0031123;100 µA
-0.171204;37.8823;-0.000243896;-0.170868;1;1471;0.00114686;-0.0031123;100 µA
-0.176544;37.9891;-0.000243958;-0.176208;1;1476;0.00114686;-0.0031123;100 µA
-0.181885;38.0959;-0.00024408;-0.181519;1;1481;0.00114686;-0.0031123;100 µA
-0.187225;38.2027;-0.000244202;-0.18689;1;1486;0.00114686;-0.0031123;100 µA
-0.192566;38.3095;-0.000244354;-0.19223;1;1491;0.00114686;-0.0031123;100 µA
-0.197906;38.4163;-0.000244537;-0.19754;1;1496;0.00114686;-0.0031123;100 µA
-0.196838;38.5232;-0.00023996;-0.196533;2;1501;0.00114513;-0.00310772;100 µA
-0.191498;38.63;-0.000235596;-0.191162;2;1506;0.00114513;-0.00310772;100 µA
-0.186157;38.7368;-0.000231934;-0.185822;2;1511;0.00114513;-0.00310772;100 µA
-0.180817;38.8436;-0.000228516;-0.180481;2;1516;0.00114513;-0.00310772;100 µA
-0.175476;38.9504;-0.000225464;-0.17514;2;1521;0.00114513;-0.00310772;100 µA
-0.170135;39.0572;-0.000222351;-0.16983;2;1526;0.00114513;-0.00310772;100 µA
-0.164795;39.164;-0.000219543;-0.16452;2;1531;0.00114513;-0.00310772;100 µA
-0.159454;39.2708;-0.000216797;-0.159119;2;1536;0.00114513;-0.00310772;100 µA
-0.154114;39.3776;-0.000214172;-0.153809;2;1541;0.00114513;-0.00310772;100 µA
-0.148773;39.4844;-0.000211487;-0.148499;2;1546;0.00114513;-0.00310772;100 µA
-0.143433;39.5913;-0.000208954;-0.143158;2;1551;0.00114513;-0.00310772;100 µA
-0.138092;39.6981;-0.000206421;-0.137817;2;1556;0.00114513;-0.00310772;100 µA
-0.132751;39.8049;-0.000203827;-0.132507;2;1561;0.00114513;-0.00310772;100 µA
-0.127411;39.9117;-0.000201477;-0.127167;2;1566;0.00114513;-0.00310772;100 µA
-0.12207;40.0185;-0.000199097;-0.121826;2;1571;0.00114513;-0.00310772;100 µA
-0.11673;40.1253;-0.000196991;-0.116486;2;1576;0.00114513;-0.00310772;100 µA
-0.111389;40.2321;-0.00019455;-0.111145;2;1581;0.00114513;-0.00310772;100 µA
-0.106049;40.3389;-0.000192169;-0.105774;2;1586;0.00114513;-0.00310772;100 µA
-0.100708;40.4457;-0.000190002;-0.100464;2;1591;0.00114513;-0.00310772;100 µA
-0.0953674;40.5525;-0.000187653;-0.0951843;2;1596;0.00114513;-0.00310772;100 µA
-0.0900269;40.6594;-0.000185547;-0.08984375;2;1601;0.00114513;-0.00310772;100 µA
-0.0846863;40.7662;-0.00018335;-0.0845337;2;1606;0.00114513;-0.00310772;100 µA
-0.0793457;40.873;-0.000181;-0.0791626;2;1611;0.00114513;-0.00310772;100 µA
-0.0740051;40.9798;-0.000178894;-0.0737915;2;1616;0.00114513;-0.00310772;100 µA
-0.0686646;41.0866;-0.00017688;-0.0684814;2;1621;0.00114513;-0.00310772;100 µA
-0.063324;41.1934;-0.000174622;-0.0631409;2;1626;0.00114513;-0.00310772;100 µA
-0.0579834;41.3002;-0.000172668;-0.0578613;2;1631;0.00114513;-0.00310772;100 µA
-0.0526428;41.407;-0.000170471;-0.0524902;2;1636;0.00114513;-0.00310772;100 µA
-0.0473022;41.5138;-0.000168549;-0.0472748;2;1641;0.00114513;-0.00310772;100 µA
-0.0419617;41.6206;-0.000166443;-0.0419159;2;1646;0.00114513;-0.00310772;100 µA
-0.0366211;41.7275;-0.000164215;-0.0366028;2;1651;0.00114513;-0.00310772;100 µA
-0.0312805;41.8343;-0.000162231;-0.0312408;2;1656;0.00114513;-0.00310772;100 µA
-0.0259399;41.9411;-0.000160156;-0.0258972;2;1661;0.00114513;-0.00310772;100 µA
-0.0205994;42.0479;-0.000158264;-0.020578;2;1666;0.00114513;-0.00310772;100 µA
-0.0152588;42.1547;-0.000156097;-0.0152252;2;1671;0.00114513;-0.00310772;100 µA
-0.00991821;42.2615;-0.000153961;-0.00989685;2;1676;0.00114513;-0.00310772;100 µA
-0.00457764;42.3683;-0.000151978;-0.00456543;2;1681;0.00114513;-0.00310772;100 µA
0.000762939;42.4751;-0.000149841;0.000793457;2;1686;0.00114513;-0.00310772;100 µA
0.00610352;42.5819;-0.000147644;0.00614014;2;1691;0.00114513;-0.00310772;100 µA
0.0114441;42.6887;-0.000145508;0.0114655;2;1696;0.00114513;-0.00310772;100 µA
0.0167847;42.7956;-0.000143372;0.0168304;2;1701;0.00114513;-0.00310772;100 µA
0.0221252;42.9024;-0.000141296;0.0221741;2;1706;0.00114513;-0.00310772;100 µA
0.0274658;43.0092;-0.000138885;0.0275238;2;1711;0.00114513;-0.00310772;100 µA
0.0328064;43.116;-0.000136627;0.0328491;2;1716;0.00114513;-0.00310772;100 µA
0.038147;43.2228;-0.000134399;0.038208;2;1721;0.00114513;-0.00310772;100 µA
0.0434875;43.3296;-0.000132172;0.0435364;2;1726;0.00114513;-0.00310772;100 µA
0.0488281;43.4364;-0.000129852;0.0488983;2;1731;0.00114513;-0.00310772;100 µA
0.0541687;43.5432;-0.000127319;0.0542908;2;1736;0.00114513;-0.00310772;100 µA
0.0595093;43.65;-0.000124786;0.0596008;2;1741;0.00114513;-0.00310772;100 µA
0.0648499;43.7568;-0.000122192;0.0649109;2;1746;0.00114513;-0.00310772;100 µA
0.0701904;43.8637;-0.000119446;0.070282;2;1751;0.00114513;-0.00310772;100 µA
0.075531;43.9705;-0.000116547;0.0756836;2;1756;0.00114513;-0.00310772;100 µA
0.0808716;44.0773;-0.000113678;0.0809326;2;1761;0.00114513;-0.00310772;100 µA
0.0862122;44.1841;-0.000110443;0.0863342;2;1766;0.00114513;-0.00310772;100 µA
0.0915527;44.2909;-0.000107178;0.0916138;2;1771;0.00114513;-0.00310772;100 µA
0.0968933;44.3977;-0.000103516;0.0970154;2;1776;0.00114513;-0.00310772;100 µA
0.102234;44.5045;-9.97314e-05;0.102325;2;1781;0.00114513;-0.00310772;100 µA
0.107574;44.6113;-9.56116e-05;0.107697;2;1786;0.00114513;-0.00310772;100 µA
0.112915;44.7181;-9.12476e-05;0.112976;2;1791;0.00114513;-0.00310772;100 µA
0.118256;44.8249;-8.65173e-05;0.118347;2;1796;0.00114513;-0.00310772;100 µA
0.123596;44.9318;-8.14819e-05;0.123657;2;1801;0.00114513;-0.00310772;100 µA
0.128937;45.0386;-7.58362e-05;0.128998;2;1806;0.00114513;-0.00310772;100 µA
0.134277;45.1454;-7.00989e-05;0.134369;2;1811;0.00114513;-0.00310772;100 µA
0.139618;45.2522;-6.36902e-05;0.139709;2;1816;0.00114513;-0.00310772;100 µA
0.144958;45.359;-5.68542e-05;0.14502;2;1821;0.00114513;-0.00310772;100 µA
0.150299;45.4658;-4.96216e-05;0.15036;2;1826;0.00114513;-0.00310772;100 µA
0.15564;45.5726;-4.17175e-05;0.155701;2;1831;0.00114513;-0.00310772;100 µA
0.16098;45.6794;-3.33374e-05;0.161041;2;1836;0.00114513;-0.00310772;100 µA
0.166321;45.7862;-2.43469e-05;0.166412;2;1841;0.00114513;-0.00310772;100 µA
0.171661;45.893;-1.52527e-05;0.171722;2;1846;0.00114513;-0.00310772;100 µA
0.177002;45.9999;-6.09131e-06;0.177063;2;1851;0.00114513;-0.00310772;100 µA
0.182343;46.1067;3.06793e-06;0.182373;2;1856;0.00114513;-0.00310772;10 µA
0.187683;46.2135;1.2085e-05;0.187531;2;1861;0.00114513;-0.00310772;10 µA
0.193024;46.3203;2.10541e-05;0.19281;2;1866;0.00114513;-0.00310772;10 µA
0.198364;46.4271;2.9776e-05;0.197998;2;1871;0.00114513;-0.00310772;10 µA
0.203705;46.5339;3.8443e-05;0.203705;2;1876;0.00114513;-0.00310772;100 µA
0.209045;46.6407;4.6637e-05;0.208984;2;1881;0.00114513;-0.00310772;100 µA
0.214386;46.7475;5.45959e-05;0.214325;2;1886;0.00114513;-0.00310772;100 µA
0.219727;46.8543;6.23169e-05;0.219666;2;1891;0.00114513;-0.00310772;100 µA
0.225067;46.9611;6.9519e-05;0.224976;2;1896;0.00114513;-0.00310772;100 µA
0.230408;47.068;7.62634e-05;0.230347;2;1901;0.00114513;-0.00310772;100 µA
0.235748;47.1748;8.25806e-05;0.235657;2;1906;0.00114513;-0.00310772;100 µA
0.241089;47.2816;8.84094e-05;0.241028;2;1911;0.00114513;-0.00310772;100 µA
0.246429;47.3884;9.38721e-05;0.246368;2;1916;0.00114513;-0.00310772;100 µA
0.25177;47.4952;9.88159e-05;0.251709;2;1921;0.00114513;-0.00310772;100 µA
0.257111;47.602;0.000103302;0.257019;2;1926;0.00114513;-0.00310772;100 µA
0.262451;47.7088;0.000107635;0.26236;2;1931;0.00114513;-0.00310772;100 µA
0.267792;47.8156;0.000111359;0.2677;2;1936;0.00114513;-0.00310772;100 µA
0.273132;47.9224;0.000114624;0.27301;2;1941;0.00114513;-0.00310772;100 µA
0.278473;48.0292;0.000117554;0.278412;2;1946;0.00114513;-0.00310772;100 µA
0.283813;48.1361;0.000120117;0.283661;2;1951;0.00114513;-0.00310772;100 µA
0.289154;48.2429;0.000122437;0.2890625;2;1956;0.00114513;-0.00310772;100 µA
0.294495;48.3497;0.00012442;0.294373;2;1961;0.00114513;-0.00310772;100 µA
0.299835;48.4565;0.000126068;0.299713;2;1966;0.00114513;-0.00310772;100 µA
0.305176;48.5633;0.000127502;0.305023;2;1971;0.00114513;-0.00310772;100 µA
0.310516;48.6701;0.000128693;0.310455;2;1976;0.00114513;-0.00310772;100 µA
0.315857;48.7769;0.00012973;0.315796;2;1981;0.00114513;-0.00310772;100 µA
0.321198;48.8837;0.000130493;0.321106;2;1986;0.00114513;-0.00310772;100 µA
0.326538;48.9905;0.000131042;0.326447;2;1991;0.00114513;-0.00310772;100 µA
0.331879;49.0973;0.000131317;0.331818;2;1996;0.00114513;-0.00310772;100 µA
0.337219;49.2042;0.0001315;0.337158;2;2001;0.00114513;-0.00310772;100 µA
0.34256;49.311;0.0001315;0.342499;2;2006;0.00114513;-0.00310772;100 µA
0.3479;49.4178;0.000131317;0.347839;2;2011;0.00114513;-0.00310772;100 µA
0.353241;49.5246;0.000131012;0.35318;2;2016;0.00114513;-0.00310772;100 µA
0.358582;49.6314;0.000130646;0.358521;2;2021;0.00114513;-0.00310772;100 µA
0.363922;49.7382;0.000130188;0.363892;2;2026;0.00114513;-0.00310772;100 µA
0.369263;49.845;0.000129486;0.369202;2;2031;0.00114513;-0.00310772;100 µA
0.374603;49.9518;0.000128815;0.374573;2;2036;0.00114513;-0.00310772;100 µA
0.379944;50.0586;0.000128021;0.379913;2;2041;0.00114513;-0.00310772;100 µA
0.385284;50.1654;0.000127197;0.385284;2;2046;0.00114513;-0.00310772;100 µA
0.390625;50.2723;0.000126251;0.390656;2;2051;0.00114513;-0.00310772;100 µA
0.395966;50.3791;0.000125336;0.395935;2;2056;0.00114513;-0.00310772;100 µA
0.401306;50.4859;0.00012439;0.401337;2;2061;0.00114513;-0.00310772;100 µA
0.406647;50.5927;0.000123383;0.406616;2;2066;0.00114513;-0.00310772;100 µA
0.411987;50.6995;0.000122345;0.411987;2;2071;0.00114513;-0.00310772;100 µA
0.417328;50.8063;0.000121338;0.417297;2;2076;0.00114513;-0.00310772;100 µA
0.422668;50.9131;0.00012027;0.422699;2;2081;0.00114513;-0.00310772;100 µA
0.428009;51.0199;0.000119202;0.427979;2;2086;0.00114513;-0.00310772;100 µA
0.43335;51.1267;0.000118164;0.43335;2;2091;0.00114513;-0.00310772;100 µA
0.43869;51.2335;0.000117126;0.43866;2;2096;0.00114513;-0.00310772;100 µA
0.444031;51.3404;0.00011615;0.444;2;2101;0.00114513;-0.00310772;100 µA
0.449371;51.4472;0.000115143;0.449341;2;2106;0.00114513;-0.00310772;100 µA
0.454712;51.554;0.000114197;0.454742;2;2111;0.00114513;-0.00310772;100 µA
0.460052;51.6608;0.00011322;0.460052;2;2116;0.00114513;-0.00310772;100 µA
0.465393;51.7676;0.000112274;0.465393;2;2121;0.00114513;-0.00310772;100 µA
0.470734;51.8744;0.00011142;0.470703;2;2126;0.00114513;-0.00310772;100 µA
0.476074;51.9812;0.000110535;0.476044;2;2131;0.00114513;-0.00310772;100 µA
0.481415;52.088;0.000109711;0.481415;2;2136;0.00114513;-0.00310772;100 µA
0.486755;52.1948;0.000108917;0.486725;2;2141;0.00114513;-0.00310772;100 µA
0.492096;52.3016;0.000108154;0.492065;2;2146;0.00114513;-0.00310772;100 µA
0.497437;52.4085;0.000107452;0.497437;2;2151;0.00114513;-0.00310772;100 µA
0.502777;52.5153;0.00010675;0.502808;2;2156;0.00114513;-0.00310772;100 µA
0.508118;52.6221;0.00010611;0.508087;2;2161;0.00114513;-0.00310772;100 µA
0.513458;52.7289;0.000105469;0.513458;2;2166;0.00114513;-0.00310772;100 µA
0.518799;52.8357;0.000104919;0.518799;2;2171;0.00114513;-0.00310772;100 µA
0.524139;52.9425;0.000104401;0.524139;2;2176;0.00114513;-0.00310772;100 µA
0.52948;53.0493;0.000103912;0.529572;2;2181;0.00114513;-0.00310772;100 µA
0.534821;53.1561;0.000103455;0.534821;2;2186;0.00114513;-0.00310772;100 µA
0.540161;53.2629;0.000103027;0.5401;2;2191;0.00114513;-0.00310772;100 µA
0.545502;53.3697;0.000102631;0.545532;2;2196;0.00114513;-0.00310772;100 µA
0.550842;53.4766;0.000102295;0.550873;2;2201;0.00114513;-0.00310772;100 µA
0.556183;53.5834;0.000101959;0.556183;2;2206;0.00114513;-0.00310772;100 µA
0.561523;53.6902;0.000101685;0.561554;2;2211;0.00114513;-0.00310772;100 µA
0.566864;53.797;0.00010141;0.566833;2;2216;0.00114513;-0.00310772;100 µA
0.572205;53.9038;0.000101288;0.572266;2;2221;0.00114513;-0.00310772;100 µA
0.577545;54.0106;0.000101074;0.577545;2;2226;0.00114513;-0.00310772;100 µA
0.582886;54.1174;0.000100922;0.582947;2;2231;0.00114513;-0.00310772;100 µA
0.588226;54.2242;0.00010083;0.588257;2;2236;0.00114513;-0.00310772;100 µA
0.593567;54.331;0.0001008;0.593597;2;2241;0.00114513;-0.00310772;100 µA
0.598907;54.4378;0.000100739;0.598907;2;2246;0.00114513;-0.00310772;100 µA
0.595703;54.5447;9.71375e-05;0.595764;2;2251;0.00114513;-0.00310772;100 µA
0.590363;54.6515;9.40552e-05;0.590454;2;2256;0.00114513;-0.00310772;100 µA
0.585022;54.7583;9.13086e-05;0.585083;2;2261;0.00114513;-0.00310772;100 µA
0.579681;54.8651;8.87451e-05;0.579773;2;2266;0.00114513;-0.00310772;100 µA
0.574341;54.9719;8.63342e-05;0.574432;2;2271;0.00114513;-0.00310772;100 µA
0.569;55.0787;8.39844e-05;0.569061;2;2276;0.00114513;-0.00310772;100 µA
0.56366;55.1855;8.17871e-05;0.56369;2;2281;0.00114513;-0.00310772;100 µA
0.558319;55.2923;7.96509e-05;0.55835;2;2286;0.00114513;-0.00310772;100 µA
0.552979;55.3991;7.75452e-05;0.553101;2;2291;0.00114513;-0.00310772;100 µA
0.547638;55.5059;7.5531e-05;0.547638;2;2296;0.00114513;-0.00310772;100 µA
0.542297;55.6128;7.35168e-05;0.542358;2;2301;0.00114513;-0.00310772;100 µA
0.536957;55.7196;7.15332e-05;0.537048;2;2306;0.00114513;-0.00310772;100 µA
0.531616;55.8264;6.96106e-05;0.531647;2;2311;0.00114513;-0.00310772;100 µA
0.526276;55.9332;6.77185e-05;0.526276;2;2316;0.00114513;-0.00310772;100 µA
0.520935;56.04;6.58569e-05;0.520966;2;2321;0.00114513;-0.00310772;100 µA
0.515594;56.1468;6.39954e-05;0.515656;2;2326;0.00114513;-0.00310772;100 µA
0.510254;56.2536;6.21948e-05;0.510284;2;2331;0.00114513;-0.00310772;100 µA
0.504913;56.3604;6.03943e-05;0.505005;2;2336;0.00114513;-0.00310772;100 µA
0.499573;56.4672;5.859375E-05;0.499634;2;2341;0.00114513;-0.00310772;100 µA
0.494232;56.574;5.68237e-05;0.494293;2;2346;0.00114513;-0.00310772;100 µA
0.488892;56.6809;5.50537e-05;0.488953;2;2351;0.00114513;-0.00310772;100 µA
0.483551;56.7877;5.33142e-05;0.483643;2;2356;0.00114513;-0.00310772;100 µA
0.47821;56.8945;5.16052e-05;0.478271;2;2361;0.00114513;-0.00310772;100 µA
0.47287;57.0013;4.98657e-05;0.4729;2;2366;0.00114513;-0.00310772;100 µA
0.467529;57.1081;4.81689e-05;0.46756;2;2371;0.00114513;-0.00310772;100 µA
0.462189;57.2149;4.64417e-05;0.46225;2;2376;0.00114513;-0.00310772;100 µA
0.456848;57.3217;4.4754e-05;0.456909;2;2381;0.00114513;-0.00310772;100 µA
0.451508;57.4285;4.30786e-05;0.451569;2;2386;0.00114513;-0.00310772;100 µA
0.446167;57.5353;4.13818e-05;0.446228;2;2391;0.00114513;-0.00310772;100 µA
0.440826;57.6421;3.974e-05;0.440887;2;2396;0.00114513;-0.00310772;100 µA
0.435486;57.749;3.80157e-05;0.435608;2;2401;0.00114513;-0.00310772;100 µA
0.430145;57.8558;3.63525e-05;0.430237;2;2406;0.00114513;-0.00310772;100 µA
0.424805;57.9626;3.47137e-05;0.424866;2;2411;0.00114513;-0.00310772;100 µA
0.419464;58.0694;3.30261e-05;0.419495;2;2416;0.00114513;-0.00310772;100 µA
0.414124;58.1762;3.13904e-05;0.414154;2;2421;0.00114513;-0.00310772;100 µA
0.408783;58.283;2.96875E-05;0.408844;2;2426;0.00114513;-0.00310772;100 µA
0.403442;58.3898;2.80182e-05;0.403534;2;2431;0.00114513;-0.00310772;100 µA
0.398102;58.4966;2.62817e-05;0.398163;2;2436;0.00114513;-0.00310772;100 µA
0.392761;58.6034;2.45972e-05;0.392853;2;2441;0.00114513;-0.00310772;100 µA
0.387421;58.7102;2.29401e-05;0.387512;2;2446;0.00114513;-0.00310772;100 µA
0.38208;58.8171;2.11914e-05;0.382172;2;2451;0.00114513;-0.00310772;100 µA
0.37674;58.9239;1.94031e-05;0.376801;2;2456;0.00114513;-0.00310772;100 µA
0.371399;59.0307;1.77521e-05;0.37146;2;2461;0.00114513;-0.00310772;100 µA
0.366058;59.1375;1.5976e-05;0.36615;2;2466;0.00114513;-0.00310772;100 µA
0.360718;59.2443;1.42059e-05;0.360809;2;2471;0.00114513;-0.00310772;100 µA
0.355377;59.3511;1.24146e-05;0.355469;2;2476;0.00114513;-0.00310772;100 µA
0.350037;59.4579;1.05316e-05;0.350128;2;2481;0.00114513;-0.00310772;100 µA
0.344696;59.5647;8.70361e-06;0.344727;2;2486;0.00114513;-0.00310772;100 µA
0.339355;59.6715;6.69861e-06;0.339386;2;2491;0.00114513;-0.00310772;10 µA
0.334015;59.7783;4.74854e-06;0.334076;2;2496;0.00114513;-0.00310772;10 µA
0.328674;59.8852;2.7948e-06;0.328705;2;2501;0.00114513;-0.00310772;10 µA
0.323334;59.992;8.19702e-07;0.323456;2;2506;0.00114513;-0.00310772;10 µA
0.317993;60.0988;-1.32538e-06;0.318176;2;2511;0.00114513;-0.00310772;1 µA
0.312653;60.2056;-3.58154e-06;0.312744;2;2516;0.00114513;-0.00310772;10 µA
0.307312;60.3124;-5.88989e-06;0.307373;2;2521;0.00114513;-0.00310772;10 µA
0.301971;60.4192;-8.36487e-06;0.302124;2;2526;0.00114513;-0.00310772;10 µA
0.296631;60.526;-1.0907e-05;0.296814;2;2531;0.00114513;-0.00310772;10 µA
0.29129;60.6328;-1.35712e-05;0.291504;2;2536;0.00114513;-0.00310772;10 µA
0.28595;60.7396;-1.6394e-05;0.286133;2;2541;0.00114513;-0.00310772;10 µA
0.280609;60.8464;-1.94214e-05;0.280823;2;2546;0.00114513;-0.00310772;10 µA
0.275269;60.9533;-2.27234e-05;0.275543;2;2551;0.00114513;-0.00310772;10 µA
0.269928;61.0601;-2.61841e-05;0.270233;2;2556;0.00114513;-0.00310772;10 µA
0.264587;61.1669;-2.99927e-05;0.264893;2;2561;0.00114513;-0.00310772;10 µA
0.259247;61.2737;-3.40607e-05;0.259338;2;2566;0.00114513;-0.00310772;100 µA
0.253906;61.3805;-3.85162e-05;0.253998;2;2571;0.00114513;-0.00310772;100 µA
0.248566;61.4873;-4.32678e-05;0.248657;2;2576;0.00114513;-0.00310772;100 µA
0.243225;61.5941;-4.85321e-05;0.243347;2;2581;0.00114513;-0.00310772;100 µA
0.237885;61.7009;-5.40466e-05;0.237976;2;2586;0.00114513;-0.00310772;100 µA
0.232544;61.8077;-6.01196e-05;0.232605;2;2591;0.00114513;-0.00310772;100 µA
0.227203;61.9145;-6.65894e-05;0.227325;2;2596;0.00114513;-0.00310772;100 µA
0.221863;62.0214;-7.37305e-05;0.221985;2;2601;0.00114513;-0.00310772;100 µA
0.216522;62.1282;-8.12378e-05;0.216614;2;2606;0.00114513;-0.00310772;100 µA
0.211182;62.235;-8.91724e-05;0.211273;2;2611;0.00114513;-0.00310772;100 µA
0.205841;62.3418;-9.765625E-05;0.205994;2;2616;0.00114513;-0.00310772;100 µA
0.2005;62.4486;-0.000106415;0.200653;2;2621;0.00114513;-0.00310772;100 µA
0.19516;62.5554;-0.000115601;0.195282;2;2626;0.00114513;-0.00310772;100 µA
0.189819;62.6622;-0.000124939;0.189911;2;2631;0.00114513;-0.00310772;100 µA
0.184479;62.769;-0.000134705;0.184662;2;2636;0.00114513;-0.00310772;100 µA
0.179138;62.8758;-0.000144379;0.179321;2;2641;0.00114513;-0.00310772;100 µA
0.173798;62.9826;-0.000154205;0.17395;2;2646;0.00114513;-0.00310772;100 µA
0.168457;63.0895;-0.00016394;0.16861;2;2651;0.00114513;-0.00310772;100 µA
0.163116;63.1963;-0.000173553;0.1633;2;2656;0.00114513;-0.00310772;100 µA
0.157776;63.3031;-0.0001828;0.15799;2;2661;0.00114513;-0.00310772;100 µA
0.152435;63.4099;-0.000192169;0.152618;2;2666;0.00114513;-0.00310772;100 µA
0.147095;63.5167;-0.000201355;0.147278;2;2671;0.00114513;-0.00310772;100 µA
0.141754;63.6235;-0.000210449;0.142029;2;2676;0.00114513;-0.00310772;100 µA
0.136414;63.7303;-0.000218781;0.136597;2;2681;0.00114513;-0.00310772;100 µA
0.131073;63.8371;-0.000225342;0.131317;2;2686;0.00114513;-0.00310772;100 µA
0.125732;63.9439;-0.000231232;0.125977;2;2691;0.00114513;-0.00310772;100 µA
0.120392;64.0507;-0.000236542;0.120575;2;2696;0.00114513;-0.00310772;100 µA
0.115051;64.1576;-0.000241211;0.115265;2;2701;0.00114513;-0.00310772;100 µA
0.109711;64.2644;-0.000245392;0.110016;2;2706;0.00114513;-0.00310772;100 µA
0.10437;64.3712;-0.000249023;0.104584;2;2711;0.00114513;-0.00310772;100 µA
0.0990295;64.478;-0.000252197;0.0992432;2;2716;0.00114513;-0.00310772;100 µA
0.093689;64.5848;-0.000254761;0.0939636;2;2721;0.00114513;-0.00310772;100 µA
0.0883484;64.6916;-0.000257141;0.088623;2;2726;0.00114513;-0.00310772;100 µA
0.0830078;64.7984;-0.000258942;0.083252;2;2731;0.00114513;-0.00310772;100 µA
0.0776672;64.9052;-0.000260345;0.0779419;2;2736;0.00114513;-0.00310772;100 µA
0.0723267;65.012;-0.000261444;0.0725403;2;2741;0.00114513;-0.00310772;100 µA
0.0669861;65.1188;-0.000262177;0.0672302;2;2746;0.00114513;-0.00310772;100 µA
0.0616455;65.2257;-0.000262695;0.0618896;2;2751;0.00114513;-0.00310772;100 µA
0.0563049;65.3325;-0.000263031;0.0565796;2;2756;0.00114513;-0.00310772;100 µA
0.0509644;65.4393;-0.000263092;0.0512085;2;2761;0.00114513;-0.00310772;100 µA
0.0456238;65.5461;-0.000262939;0.0457092;2;2766;0.00114513;-0.00310772;100 µA
0.0402832;65.6529;-0.000262726;0.0403534;2;2771;0.00114513;-0.00310772;100 µA
0.0349426;65.7597;-0.00026236;0.0350037;2;2776;0.00114513;-0.00310772;100 µA
0.0296021;65.8665;-0.00026181;0.0296631;2;2781;0.00114513;-0.00310772;100 µA
0.0242615;65.9733;-0.000261322;0.0243317;2;2786;0.00114513;-0.00310772;100 µA
0.0189209;66.0801;-0.000260712;0.0189758;2;2791;0.00114513;-0.00310772;100 µA
0.0135803;66.1869;-0.00026004;0.0136261;2;2796;0.00114513;-0.00310772;100 µA
0.00823975;66.2938;-0.000259369;0.00829163;2;2801;0.00114513;-0.00310772;100 µA
0.00289917;66.4006;-0.000258606;0.00293579;2;2806;0.00114513;-0.00310772;100 µA
-0.00244141;66.5074;-0.000257965;-0.00241394;2;2811;0.00114513;-0.00310772;100 µA
-0.00778198;66.6142;-0.000257172;-0.00774841;2;2816;0.00114513;-0.00310772;100 µA
-0.0131226;66.721;-0.000256378;-0.0130737;2;2821;0.00114513;-0.00310772;100 µA
-0.0184631;66.8278;-0.000255615;-0.0184235;2;2826;0.00114513;-0.00310772;100 µA
-0.0238037;66.9346;-0.000255005;-0.0237671;2;2831;0.00114513;-0.00310772;100 µA
-0.0291443;67.0414;-0.000254181;-0.0290985;2;2836;0.00114513;-0.00310772;100 µA
-0.0344849;67.1482;-0.000253448;-0.034436;2;2841;0.00114513;-0.00310772;100 µA
-0.0398254;67.255;-0.000252472;-0.0397797;2;2846;0.00114513;-0.00310772;100 µA
-0.045166;67.3619;-0.000251862;-0.045108;2;2851;0.00114513;-0.00310772;100 µA
-0.0505066;67.4687;-0.00025116;-0.0502625;2;2856;0.00114513;-0.00310772;100 µA
-0.0558472;67.5755;-0.000250519;-0.0555725;2;2861;0.00114513;-0.00310772;100 µA
-0.0611877;67.6823;-0.000249817;-0.0609131;2;2866;0.00114513;-0.00310772;100 µA
-0.0665283;67.7891;-0.00024939;-0.0662231;2;2871;0.00114513;-0.00310772;100 µA
-0.0718689;67.8959;-0.000248749;-0.0715637;2;2876;0.00114513;-0.00310772;100 µA
-0.0772095;68.0027;-0.000248199;-0.0769348;2;2881;0.00114513;-0.00310772;100 µA
-0.08255;68.1095;-0.000247742;-0.0823059;2;2886;0.00114513;-0.00310772;100 µA
-0.0878906;68.2163;-0.000247223;-0.087616;2;2891;0.00114513;-0.00310772;100 µA
-0.0932312;68.3231;-0.000246765;-0.0928955;2;2896;0.00114513;-0.00310772;100 µA
-0.0985718;68.43;-0.000246307;-0.0983276;2;2901;0.00114513;-0.00310772;100 µA
-0.103912;68.5368;-0.000245819;-0.103638;2;2906;0.00114513;-0.00310772;100 µA
-0.109253;68.6436;-0.000245544;-0.108978;2;2911;0.00114513;-0.00310772;100 µA
-0.114594;68.7504;-0.00024527;-0.114319;2;2916;0.00114513;-0.00310772;100 µA
-0.119934;68.8572;-0.000244751;-0.119659;2;2921;0.00114513;-0.00310772;100 µA
-0.125275;68.964;-0.000244598;-0.124969;2;2926;0.00114513;-0.00310772;100 µA
-0.130615;69.0708;-0.000244415;-0.13028;2;2931;0.00114513;-0.00310772;100 µA
-0.135956;69.1776;-0.000244171;-0.135681;2;2936;0.00114513;-0.00310772;100 µA
-0.141296;69.2844;-0.000244141;-0.140991;2;2941;0.00114513;-0.00310772;100 µA
-0.146637;69.3912;-0.000243896;-0.146362;2;2946;0.00114513;-0.00310772;100 µA
-0.151978;69.4981;-0.000243744;-0.151672;2;2951;0.00114513;-0.00310772;100 µA
-0.157318;69.6049;-0.000243835;-0.157013;2;2956;0.00114513;-0.00310772;100 µA
-0.162659;69.7117;-0.000243774;-0.162292;2;2961;0.00114513;-0.00310772;100 µA
-0.167999;69.8185;-0.000243774;-0.167664;2;2966;0.00114513;-0.00310772;100 µA
-0.17334;69.9253;-0.000243774;-0.172943;2;2971;0.00114513;-0.00310772;100 µA
-0.17868;70.0321;-0.000243835;-0.178345;2;2976;0.00114513;-0.00310772;100 µA
-0.184021;70.1389;-0.000243896;-0.183655;2;2981;0.00114513;-0.00310772;100 µA
-0.189362;70.2457;-0.00024411;-0.188965;2;2986;0.00114513;-0.00310772;100 µA
-0.194702;70.3525;-0.000244324;-0.194336;2;2991;0.00114513;-0.00310772;100 µA
-0.200043;70.4593;-0.000244324;-0.199646;2;2996;0.00114513;-0.00310772;100 µA
-0.197906;70.5021;-0.000241028;-0.197571;2;2998;0.00114513;-0.00310772;100 µA