File: Laboratorio 2/Verificar Equacao de Randles Sevcik/CV_500 mV_Ferri_ferro.txt
Potential applied (V);Time (s);WE(1).Current (A);WE(1).Potential (V);Scan;Index;Q+;Q-
-0.196838;9.6483;-0.000451477;-0.196594;2;1501;;
-0.194702;9.65257;-0.000443085;-0.19455;2;1503;;
-0.192566;9.65684;-0.000435913;-0.192413;2;1505;;
-0.19043;9.66112;-0.000429321;-0.190216;2;1507;;
-0.188293;9.66539;-0.00042337;-0.18811;2;1509;;
-0.186157;9.66966;-0.000417725;-0.186005;2;1511;;
-0.184021;9.67393;-0.000412567;-0.183868;2;1513;;
-0.181885;9.6782;-0.000407318;-0.181732;2;1515;;
-0.179749;9.68248;-0.000402649;-0.179504;2;1517;;
-0.177612;9.68675;-0.000398163;-0.17746;2;1519;;
-0.175476;9.69102;-0.000393524;-0.175354;2;1521;;
-0.17334;9.69529;-0.000389069;-0.173187;2;1523;;
-0.171204;9.69956;-0.000384827;-0.171021;2;1525;;
-0.169067;9.70384;-0.000380829;-0.168915;2;1527;;
-0.166931;9.70811;-0.000377045;-0.166779;2;1529;;
-0.164795;9.71238;-0.000373077;-0.164673;2;1531;;
-0.162659;9.71665;-0.000369171;-0.162598;2;1533;;
-0.160522;9.72092;-0.000365509;-0.1604;2;1535;;
-0.158386;9.7252;-0.000362;-0.158295;2;1537;;
-0.15625;9.72947;-0.000358521;-0.156097;2;1539;;
-0.154114;9.73374;-0.000355164;-0.154022;2;1541;;
-0.151978;9.73801;-0.000351593;-0.151855;2;1543;;
-0.149841;9.74228;-0.00034845;-0.14975;2;1545;;
-0.147705;9.74656;-0.000345245;-0.147583;2;1547;;
-0.145569;9.75083;-0.000341919;-0.145416;2;1549;;
-0.143433;9.7551;-0.000338562;-0.143311;2;1551;;
-0.141296;9.75937;-0.000335541;-0.141174;2;1553;;
-0.13916;9.76364;-0.000332642;-0.139008;2;1555;;
-0.137024;9.76792;-0.00032962;-0.136932;2;1557;;
-0.134888;9.77219;-0.00032663;-0.134796;2;1559;;
-0.132751;9.77646;-0.000323608;-0.132629;2;1561;;
-0.130615;9.78073;-0.000320801;-0.130524;2;1563;;
-0.128479;9.785;-0.000317902;-0.128387;2;1565;;
-0.126343;9.78928;-0.000315399;-0.126221;2;1567;;
-0.124207;9.79355;-0.000312653;-0.124084;2;1569;;
-0.12207;9.79782;-0.000309509;-0.121948;2;1571;;
-0.119934;9.80209;-0.000306824;-0.119812;2;1573;;
-0.117798;9.80636;-0.000304047;-0.117676;2;1575;;
-0.115662;9.81064;-0.000301422;-0.11554;2;1577;;
-0.113525;9.81491;-0.000298767;-0.113464;2;1579;;
-0.111389;9.81918;-0.000296204;-0.111267;2;1581;;
-0.109253;9.82345;-0.000293549;-0.109161;2;1583;;
-0.107117;9.82772;-0.00029126;-0.106995;2;1585;;
-0.10498;9.832;-0.000288879;-0.104858;2;1587;;
-0.102844;9.83627;-0.000286194;-0.102783;2;1589;;
-0.100708;9.84054;-0.000283905;-0.100647;2;1591;;
-0.0985718;9.84481;-0.000281464;-0.0985107;2;1593;;
-0.0964355;9.84908;-0.000279205;-0.096344;2;1595;;
-0.0942993;9.85336;-0.000276611;-0.0942383;2;1597;;
-0.0921631;9.85763;-0.000274384;-0.0921021;2;1599;;
-0.0900269;9.8619;-0.00027182;-0.0899658;2;1601;;
-0.0878906;9.86617;-0.000269592;-0.087738;2;1603;;
-0.0857544;9.87044;-0.000267212;-0.0856934;2;1605;;
-0.0836182;9.87472;-0.000264923;-0.0835266;2;1607;;
-0.0814819;9.87899;-0.000262695;-0.0814514;2;1609;;
-0.0793457;9.88326;-0.000260193;-0.0792847;2;1611;;
-0.0772095;9.88753;-0.000258087;-0.0771484;2;1613;;
-0.0750732;9.8918;-0.000255798;-0.0750427;2;1615;;
-0.072937;9.89608;-0.000253662;-0.0729065;2;1617;;
-0.0708008;9.90035;-0.000251099;-0.0707397;2;1619;;
-0.0686646;9.90462;-0.000249298;-0.0686035;2;1621;;
-0.0665283;9.90889;-0.000247101;-0.0664978;2;1623;;
-0.0643921;9.91316;-0.000245056;-0.0643311;2;1625;;
-0.0622559;9.91744;-0.000242828;-0.0621338;2;1627;;
-0.0601196;9.92171;-0.000240875;-0.0600586;2;1629;;
-0.0579834;9.92598;-0.000238647;-0.0579224;2;1631;;
-0.0558472;9.93025;-0.000236633;-0.0557251;2;1633;;
-0.0537109;9.93452;-0.000234283;-0.0536499;2;1635;;
-0.0515747;9.9388;-0.0002323;-0.0515442;2;1637;;
-0.0494385;9.94307;-0.000230286;-0.0494049;2;1639;;
-0.0473022;9.94734;-0.000228088;-0.0472504;2;1641;;
-0.045166;9.95161;-0.000226349;-0.0451294;2;1643;;
-0.0430298;9.95588;-0.000224335;-0.0429932;2;1645;;
-0.0408936;9.96016;-0.00022226;-0.0408447;2;1647;;
-0.0387573;9.96443;-0.000220459;-0.0387329;2;1649;;
-0.0366211;9.9687;-0.000218353;-0.0365967;2;1651;;
-0.0344849;9.97297;-0.000216339;-0.0344513;2;1653;;
-0.0323486;9.97724;-0.000214294;-0.0323059;2;1655;;
-0.0302124;9.98152;-0.000212585;-0.0301819;2;1657;;
-0.0280762;9.98579;-0.00021051;-0.0280426;2;1659;;
-0.0259399;9.99006;-0.000208588;-0.0259003;2;1661;;
-0.0238037;9.99433;-0.00020694;-0.0237762;2;1663;;
-0.0216675;9.9986;-0.000204834;-0.0216217;2;1665;;
-0.01953125;10.0029;-0.000203064;-0.0195038;2;1667;;
-0.017395;10.0071;-0.000201172;-0.0173676;2;1669;;
-0.0152588;10.0114;-0.000199219;-0.0152191;2;1671;;
-0.0131226;10.0157;-0.000197296;-0.0131012;2;1673;;
-0.0109863;10.02;-0.00019574;-0.0109589;2;1675;;
-0.0088501;10.0242;-0.000193695;-0.00882874;2;1677;;
-0.00671387;10.0285;-0.000191833;-0.0066864;2;1679;;
-0.00457764;10.0328;-0.000189941;-0.00455627;2;1681;;
-0.00244141;10.0371;-0.000188324;-0.00242004;2;1683;;
-0.000305176;10.0413;-0.000186462;-0.000289917;2;1685;;
0.00183105;10.0456;-0.000184753;0.00185547;2;1687;;
0.00396729;10.0499;-0.000182739;0.00398865;2;1689;;
0.00610352;10.0541;-0.000181213;0.00613098;2;1691;;
0.00823975;10.0584;-0.00017923;0.00826111;2;1693;;
0.010376;10.0627;-0.000177551;0.0104126;2;1695;;
0.0125122;10.067;-0.00017572;0.0125427;2;1697;;
0.0146484;10.0712;-0.000174072;0.014682;2;1699;;
0.0167847;10.0755;-0.000172119;0.0168365;2;1701;;
0.0189209;10.0798;-0.000170563;0.0189606;2;1703;;
0.0210571;10.084;-0.000168854;0.0210876;2;1705;;
0.0231934;10.0883;-0.000167023;0.0232452;2;1707;;
0.0253296;10.0926;-0.000165344;0.0253754;2;1709;;
0.0274658;10.0969;-0.000163788;0.0275177;2;1711;;
0.0296021;10.1011;-0.000162079;0.0296509;2;1713;;
0.0317383;10.1054;-0.0001604;0.0317993;2;1715;;
0.0338745;10.1097;-0.000158569;0.0339172;2;1717;;
0.0360107;10.1139;-0.00015683;0.0360657;2;1719;;
0.038147;10.1182;-0.000155304;0.0381958;2;1721;;
0.0402832;10.1225;-0.000153717;0.040332;2;1723;;
0.0424194;10.1268;-0.000151978;0.0424866;2;1725;;
0.0445557;10.131;-0.00015036;0.0446136;2;1727;;
0.0466919;10.1353;-0.000148743;0.0467621;2;1729;;
0.0488281;10.1396;-0.000147064;0.0488861;2;1731;;
0.0509644;10.1439;-0.000145386;0.0509949;2;1733;;
0.0531006;10.1481;-0.000143707;0.0531311;2;1735;;
0.0552368;10.1524;-0.000141937;0.0552063;2;1737;;
0.057373;10.1567;-0.00014035;0.057373;2;1739;;
0.0595093;10.1609;-0.000138702;0.0595398;2;1741;;
0.0616455;10.1652;-0.000136993;0.0616455;2;1743;;
0.0637817;10.1695;-0.000135345;0.0638123;2;1745;;
0.065918;10.1738;-0.000133606;0.065979;2;1747;;
0.0680542;10.178;-0.000132019;0.0681152;2;1749;;
0.0701904;10.1823;-0.000130157;0.0701904;2;1751;;
0.0723267;10.1866;-0.000128693;0.0723877;2;1753;;
0.0744629;10.1908;-0.000126953;0.0744934;2;1755;;
0.0765991;10.1951;-0.000125305;0.0766296;2;1757;;
0.0787354;10.1994;-0.000123627;0.0787964;2;1759;;
0.0808716;10.2037;-0.000122009;0.0809631;2;1761;;
0.0830078;10.2079;-0.000120178;0.0830383;2;1763;;
0.085144;10.2122;-0.000118622;0.0851746;2;1765;;
0.0872803;10.2165;-0.000116852;0.0873108;2;1767;;
0.0894165;10.2207;-0.000115204;0.0895081;2;1769;;
0.0915527;10.225;-0.000113586;0.0915833;2;1771;;
0.093689;10.2293;-0.000111694;0.09375;2;1773;;
0.0958252;10.2336;-0.000109863;0.0958862;2;1775;;
0.0979614;10.2378;-0.000108063;0.0980225;2;1777;;
0.100098;10.2421;-0.000106445;0.100159;2;1779;;
0.102234;10.2464;-0.000104736;0.102264;2;1781;;
0.10437;10.2507;-0.000102875;0.104431;2;1783;;
0.106506;10.2549;-0.000100861;0.106567;2;1785;;
0.108643;10.2592;-9.91211e-05;0.108643;2;1787;;
0.110779;10.2635;-9.73206e-05;0.110809;2;1789;;
0.112915;10.2677;-9.53064e-05;0.112976;2;1791;;
0.115051;10.272;-5.58472e-08;0.115082;2;1793;;
0.1171875;10.2763;-9.12781e-05;0.117249;2;1795;;
0.119324;10.2806;-8.95386e-05;0.119415;2;1797;;
0.12146;10.2848;-8.75854e-05;0.121521;2;1799;;
0.123596;10.2891;-8.54797e-05;0.123657;2;1801;;
0.125732;10.2934;-8.36487e-05;0.125824;2;1803;;
0.127869;10.2976;-8.15735e-05;0.12793;2;1805;;
0.130005;10.3019;-7.94373e-05;0.130005;2;1807;;
0.132141;10.3062;-7.75757e-05;0.132263;2;1809;;
0.134277;10.3105;-7.52258e-05;0.134369;2;1811;;
0.136414;10.3147;-7.30591e-05;0.136475;2;1813;;
0.13855;10.319;-7.08923e-05;0.138641;2;1815;;
0.140686;10.3233;-6.86646e-05;0.140778;2;1817;;
0.142822;10.3275;-6.65894e-05;0.142883;2;1819;;
0.144958;10.3318;-6.43311e-05;0.14505;2;1821;;
0.147095;10.3361;-6.18896e-05;0.147125;2;1823;;
0.149231;10.3404;-5.95093e-05;0.149292;2;1825;;
0.151367;10.3446;-5.72815e-05;0.151459;2;1827;;
0.153503;10.3489;-5.47791e-05;0.153534;2;1829;;
0.15564;10.3532;-5.24597e-05;0.155701;2;1831;;
0.157776;10.3575;-4.98352e-05;0.157806;2;1833;;
0.159912;10.3617;-4.7406e-05;0.160004;2;1835;;
0.162048;10.366;-4.47601e-05;0.16217;2;1837;;
0.164185;10.3703;-4.22424e-05;0.164246;2;1839;;
0.166321;10.3745;-3.97369e-05;0.166382;2;1841;;
0.168457;10.3788;-3.68011e-05;0.168549;2;1843;;
0.170593;10.3831;-3.41431e-05;0.170685;2;1845;;
0.172729;10.3874;-3.15735e-05;0.172821;2;1847;;
0.174866;10.3916;-2.91351e-05;0.174957;2;1849;;
0.177002;10.3959;-2.61902e-05;0.177063;2;1851;;
0.179138;10.4002;-2.34283e-05;0.179199;2;1853;;
0.181274;10.4044;-2.07367e-05;0.181335;2;1855;;
0.183411;10.4087;-1.78436e-05;0.183502;2;1857;;
0.185547;10.413;-1.50665e-05;0.185577;2;1859;;
0.187683;10.4173;-1.20911e-05;0.187744;2;1861;;
0.189819;10.4215;-9.36584e-06;0.189972;2;1863;;
0.191956;10.4258;-6.47278e-06;0.191986;2;1865;;
0.194092;10.4301;-3.48145e-06;0.194153;2;1867;;
0.196228;10.4343;-6.640625E-07;0.19635;2;1869;;
0.198364;10.4386;2.48566e-06;0.198395;2;1871;;
0.2005;10.4429;5.33142e-06;0.200531;2;1873;;
0.202637;10.4472;8.19397e-06;0.202576;2;1875;;
0.204773;10.4514;1.10352e-05;0.204742;2;1877;;
0.206909;10.4557;1.43097e-05;0.206787;2;1879;;
0.209045;10.46;1.71143e-05;0.208862;2;1881;;
0.211182;10.4643;2.005e-05;0.210999;2;1883;;
0.213318;10.4685;2.30652e-05;0.213043;2;1885;;
0.215454;10.4728;2.59521e-05;0.215179;2;1887;;
0.21759;10.4771;2.91016e-05;0.217255;2;1889;;
0.219727;10.4813;3.36639e-05;0.21936;2;1891;;
0.221863;10.4856;3.51837e-05;0.221863;2;1893;;
0.223999;10.4899;3.815e-05;0.22403;2;1895;;
0.226135;10.4942;4.1098e-05;0.226135;2;1897;;
0.228271;10.4984;4.39789e-05;0.228333;2;1899;;
0.230408;10.5027;4.70856e-05;0.230438;2;1901;;
0.232544;10.507;5.01099e-05;0.232544;2;1903;;
0.23468;10.5112;5.30396e-05;0.23465;2;1905;;
0.236816;10.5155;5.62744e-05;0.236755;2;1907;;
0.238953;10.5198;5.92651e-05;0.238922;2;1909;;
0.241089;10.5241;6.23169e-05;0.241058;2;1911;;
0.243225;10.5283;6.53687e-05;0.243164;2;1913;;
0.245361;10.5326;6.83594e-05;0.2453;2;1915;;
0.247498;10.5369;7.15942e-05;0.247437;2;1917;;
0.249634;10.5411;7.43408e-05;0.249603;2;1919;;
0.25177;10.5454;7.74536e-05;0.251709;2;1921;;
0.253906;10.5497;8.078e-05;0.253845;2;1923;;
0.256042;10.554;8.35876e-05;0.255951;2;1925;;
0.258179;10.5582;8.6731e-05;0.258148;2;1927;;
0.260315;10.5625;8.99048e-05;0.260254;2;1929;;
0.262451;10.5668;9.30176e-05;0.262451;2;1931;;
0.264587;10.5711;9.59473e-05;0.264526;2;1933;;
0.266724;10.5753;9.90601e-05;0.266693;2;1935;;
0.26886;10.5796;0.000102203;0.268799;2;1937;;
0.270996;10.5839;0.000105133;0.270935;2;1939;;
0.273132;10.5881;0.000108337;0.273041;2;1941;;
0.275269;10.5924;0.00011142;0.275208;2;1943;;
0.277405;10.5967;0.000114471;0.277344;2;1945;;
0.279541;10.601;0.000117432;0.27948;2;1947;;
0.281677;10.6052;0.000120667;0.281647;2;1949;;
0.283813;10.6095;0.000123901;0.283691;2;1951;;
0.28595;10.6138;0.000126892;0.285858;2;1953;;
0.288086;10.618;0.000130005;0.288055;2;1955;;
0.290222;10.6223;0.000133331;0.29007;2;1957;;
0.292358;10.6266;0.000136261;0.292236;2;1959;;
0.294495;10.6309;0.000139343;0.294403;2;1961;;
0.296631;10.6351;0.0001427;0.296539;2;1963;;
0.298767;10.6394;0.000145752;0.298615;2;1965;;
0.300903;10.6437;0.000148773;0.300812;2;1967;;
0.30304;10.6479;0.000152039;0.302887;2;1969;;
0.305176;10.6522;0.000155212;0.304993;2;1971;;
0.307312;10.6565;0.000158356;0.30719;2;1973;;
0.309448;10.6608;0.000161438;0.309296;2;1975;;
0.311584;10.665;0.000164368;0.311432;2;1977;;
0.313721;10.6693;0.000167664;0.313629;2;1979;;
0.315857;10.6736;0.000170868;0.315735;2;1981;;
0.317993;10.6779;0.000174042;0.317902;2;1983;;
0.320129;10.6821;0.000177032;0.319946;2;1985;;
0.322266;10.6864;0.000180359;0.322113;2;1987;;
0.324402;10.6907;0.000183533;0.32428;2;1989;;
0.326538;10.6949;0.000186523;0.326416;2;1991;;
0.328674;10.6992;0.000189697;0.328552;2;1993;;
0.330811;10.7035;0.000192871;0.330688;2;1995;;
0.332947;10.7078;0.000196045;0.332794;2;1997;;
0.335083;10.712;0.000198975;0.33493;2;1999;;
0.337219;10.7163;0.000202332;0.337036;2;2001;;
0.339355;10.7206;0.000205139;0.339172;2;2003;;
0.341492;10.7248;0.000208405;0.341339;2;2005;;
0.343628;10.7291;0.000211487;0.343445;2;2007;;
0.345764;10.7334;0.000214752;0.345581;2;2009;;
0.3479;10.7377;0.000217682;0.347717;2;2011;;
0.350037;10.7419;0.000220764;0.349792;2;2013;;
0.352173;10.7462;0.000223785;0.35199;2;2015;;
0.354309;10.7505;0.000226654;0.354126;2;2017;;
0.356445;10.7547;0.000229675;0.356232;2;2019;;
0.358582;10.759;0.000233063;0.358368;2;2021;;
0.360718;10.7633;0.00023584;0.360504;2;2023;;
0.362854;10.7676;0.000238953;0.36264;2;2025;;
0.36499;10.7718;0.000241943;0.364807;2;2027;;
0.367126;10.7761;0.000244781;0.366913;2;2029;;
0.369263;10.7804;0.000247742;0.368958;2;2031;;
0.371399;10.7847;0.000250519;0.371155;2;2033;;
0.373535;10.7889;0.000253632;0.373291;2;2035;;
0.375671;10.7932;0.000256287;0.375427;2;2037;;
0.377808;10.7975;0.000259186;0.377563;2;2039;;
0.379944;10.8017;0.000261963;0.379639;2;2041;;
0.38208;10.806;0.000264832;0.381836;2;2043;;
0.384216;10.8103;0.000267639;0.383972;2;2045;;
0.386353;10.8146;0.000270355;0.386017;2;2047;;
0.388489;10.8188;0.000273193;0.388214;2;2049;;
0.390625;10.8231;0.000275909;0.39035;2;2051;;
0.392761;10.8274;0.000278412;0.392517;2;2053;;
0.394897;10.8316;0.000281067;0.394592;2;2055;;
0.397034;10.8359;0.000283813;0.39679;2;2057;;
0.39917;10.8402;0.000286499;0.398865;2;2059;;
0.401306;10.8445;0.000289124;0.40094;2;2061;;
0.403442;10.8487;0.000291779;0.403137;2;2063;;
0.405579;10.853;0.000294281;0.405273;2;2065;;
0.407715;10.8573;0.000296722;0.40741;2;2067;;
0.409851;10.8615;0.000299225;0.409546;2;2069;;
0.411987;10.8658;0.00968628;0.409912;2;2071;;
0.414124;10.8701;0.000304382;0.414185;2;2073;;
0.41626;10.8744;0.000306671;0.416443;2;2075;;
0.418396;10.8786;0.000308899;0.418579;2;2077;;
0.420532;10.8829;0.000311188;0.420746;2;2079;;
0.422668;10.8872;0.000313507;0.422791;2;2081;;
0.424805;10.8915;0.000315521;0.424957;2;2083;;
0.426941;10.8957;0.000317841;0.427063;2;2085;;
0.429077;10.9;0.00032016;0.42923;2;2087;;
0.431213;10.9043;0.000322144;0.431366;2;2089;;
0.43335;10.9085;0.000324188;0.433563;2;2091;;
0.435486;10.9128;0.000326355;0.435577;2;2093;;
0.437622;10.9171;0.000328308;0.437744;2;2095;;
0.439758;10.9214;0.00033017;0.439911;2;2097;;
0.441895;10.9256;0.000332306;0.442078;2;2099;;
0.444031;10.9299;0.000334137;0.444183;2;2101;;
0.446167;10.9342;0.000335785;0.44632;2;2103;;
0.448303;10.9384;0.000337585;0.448456;2;2105;;
0.450439;10.9427;0.000339508;0.450592;2;2107;;
0.452576;10.947;0.000341064;0.452698;2;2109;;
0.454712;10.9513;0.000342712;0.454865;2;2111;;
0.456848;10.9555;0.000344513;0.45697;2;2113;;
0.458984;10.9598;0.000345917;0.459137;2;2115;;
0.461121;10.9641;0.000347534;0.461304;2;2117;;
0.463257;10.9683;0.000348999;0.463348;2;2119;;
0.465393;10.9726;0.000350555;0.465546;2;2121;;
0.467529;10.9769;0.000351959;0.467682;2;2123;;
0.469666;10.9812;0.000353394;0.469818;2;2125;;
0.471802;10.9854;0.000354706;0.471924;2;2127;;
0.473938;10.9897;0.000356079;0.474091;2;2129;;
0.476074;10.994;0.000357422;0.476196;2;2131;;
0.47821;10.9983;0.000358521;0.478333;2;2133;;
0.480347;11.0025;0.000359772;0.48053;2;2135;;
0.482483;11.0068;0.00036084;0.482666;2;2137;;
0.484619;11.0111;0.00036203;0.484741;2;2139;;
0.486755;11.0153;0.000363129;0.486938;2;2141;;
0.488892;11.0196;0.000364197;0.489075;2;2143;;
0.491028;11.0239;0.000365051;0.49118;2;2145;;
0.493164;11.0282;0.000365723;0.493347;2;2147;;
0.4953;11.0324;0.000366852;0.495483;2;2149;;
0.497437;11.0367;0.000367645;0.497559;2;2151;;
0.499573;11.041;0.000368439;0.499725;2;2153;;
0.501709;11.0452;0.000369293;0.501862;2;2155;;
0.503845;11.0495;0.000370026;0.503998;2;2157;;
0.505981;11.0538;0.000370728;0.506165;2;2159;;
0.508118;11.0581;0.000371307;0.508301;2;2161;;
0.510254;11.0623;0.000371948;0.510406;2;2163;;
0.51239;11.0666;0.000372742;0.512512;2;2165;;
0.514526;11.0709;0.00037326;0.514648;2;2167;;
0.516663;11.0751;0.000373718;0.516846;2;2169;;
0.518799;11.0794;0.000374207;0.518982;2;2171;;
0.520935;11.0837;0.000374664;0.521057;2;2173;;
0.523071;11.088;0.000375031;0.523254;2;2175;;
0.525208;11.0922;0.00037561;0.52536;2;2177;;
0.527344;11.0965;0.000375824;0.527527;2;2179;;
0.52948;11.1008;0.000375977;0.529663;2;2181;;
0.531616;11.1051;0.000376404;0.531799;2;2183;;
0.533752;11.1093;0.000376709;0.533936;2;2185;;
0.535889;11.1136;0.00037677;0.536011;2;2187;;
0.538025;11.1179;0.000377045;0.538147;2;2189;;
0.540161;11.1221;0.000377106;0.540344;2;2191;;
0.542297;11.1264;0.000377289;0.54248;2;2193;;
0.544434;11.1307;0.000377472;0.544617;2;2195;;
0.54657;11.135;0.000377594;0.546722;2;2197;;
0.548706;11.1392;0.00037735;0.548828;2;2199;;
0.550842;11.1435;0.000377563;0.550995;2;2201;;
0.552979;11.1478;0.000377441;0.553131;2;2203;;
0.555115;11.152;0.000377411;0.555267;2;2205;;
0.557251;11.1563;0.00037738;0.557434;2;2207;;
0.559387;11.1606;0.000377289;0.55954;2;2209;;
0.561523;11.1649;0.000376892;0.561707;2;2211;;
0.56366;11.1691;0.000376892;0.563873;2;2213;;
0.565796;11.1734;0.000376801;0.565918;2;2215;;
0.567932;11.1777;0.000376648;0.568115;2;2217;;
0.570068;11.1819;0.000376465;0.570282;2;2219;;
0.572205;11.1862;0.00037616;0.572357;2;2221;;
0.574341;11.1905;0.000375916;0.574585;2;2223;;
0.576477;11.1948;0.00037561;0.57666;2;2225;;
0.578613;11.199;0.000375305;0.578827;2;2227;;
0.58075;11.2033;0.000374908;0.580933;2;2229;;
0.582886;11.2076;0.000374695;0.583069;2;2231;;
0.585022;11.2119;0.000374115;0.585205;2;2233;;
0.587158;11.2161;0.000373993;0.587372;2;2235;;
0.589294;11.2204;0.000373505;0.589508;2;2237;;
0.591431;11.2247;0.000373047;0.591583;2;2239;;
0.593567;11.2289;0.000372711;0.59375;2;2241;;
0.595703;11.2332;0.000372345;0.595917;2;2243;;
0.597839;11.2375;0.000371918;0.597992;2;2245;;
0.599976;11.2418;0.000371338;0.600128;2;2247;;
0.597839;11.246;0.000359558;0.598022;2;2249;;
0.595703;11.2503;0.000351349;0.595856;2;2251;;
0.593567;11.2546;0.000344208;0.59375;2;2253;;
0.591431;11.2588;0.000337677;0.591614;2;2255;;
0.589294;11.2631;0.000331665;0.589478;2;2257;;
0.587158;11.2674;0.00032608;0.587372;2;2259;;
0.585022;11.2717;0.00032077;0.585205;2;2261;;
0.582886;11.2759;0.000315735;0.583069;2;2263;;
0.58075;11.2802;0.000310822;0.580933;2;2265;;
0.578613;11.2845;0.000306122;0.578766;2;2267;;
0.576477;11.2887;0.000301666;0.576691;2;2269;;
0.574341;11.293;0.000297394;0.574585;2;2271;;
0.572205;11.2973;0.000293213;0.572388;2;2273;;
0.570068;11.3016;0.000289185;0.570251;2;2275;;
0.567932;11.3058;0.000285156;0.568085;2;2277;;
0.565796;11.3101;0.00028125;0.56601;2;2279;;
0.56366;11.3144;0.000277527;0.563812;2;2281;;
0.561523;11.3187;0.000273834;0.561707;2;2283;;
0.559387;11.3229;0.000270416;0.559601;2;2285;;
0.557251;11.3272;0.000266876;0.557434;2;2287;;
0.555115;11.3315;0.000263245;0.555206;2;2289;;
0.552979;11.3357;0.000260071;0.553162;2;2291;;
0.550842;11.34;0.000256805;0.551056;2;2293;;
0.548706;11.3443;0.000253418;0.54892;2;2295;;
0.54657;11.3486;0.000250519;0.546753;2;2297;;
0.544434;11.3528;0.000247131;0.544617;2;2299;;
0.542297;11.3571;0.000243988;0.542419;2;2301;;
0.540161;11.3614;0.000241028;0.540314;2;2303;;
0.538025;11.3656;0.000238037;0.538177;2;2305;;
0.535889;11.3699;0.000235107;0.536133;2;2307;;
0.533752;11.3742;0.000232178;0.533905;2;2309;;
0.531616;11.3785;0.00022934;0.531799;2;2311;;
0.52948;11.3827;0.000226501;0.529663;2;2313;;
0.527344;11.387;0.000223694;0.527557;2;2315;;
0.525208;11.3913;0.000220856;0.525421;2;2317;;
0.523071;11.3955;0.000218262;0.523254;2;2319;;
0.520935;11.3998;0.000215515;0.521118;2;2321;;
0.518799;11.4041;0.000212891;0.518982;2;2323;;
0.516663;11.4084;0.000210266;0.516846;2;2325;;
0.514526;11.4126;0.000207611;0.514679;2;2327;;
0.51239;11.4169;0.000205048;0.512604;2;2329;;
0.510254;11.4212;0.000202515;0.510376;2;2331;;
0.508118;11.4255;0.000200073;0.50824;2;2333;;
0.505981;11.4297;0.000197449;0.506134;2;2335;;
0.503845;11.434;0.000195038;0.503998;2;2337;;
0.501709;11.4383;0.000192627;0.501862;2;2339;;
0.499573;11.4425;0.000190186;0.499756;2;2341;;
0.497437;11.4468;0.000187744;0.49762;2;2343;;
0.4953;11.4511;0.000185303;0.495453;2;2345;;
0.493164;11.4554;0.000183014;0.493347;2;2347;;
0.491028;11.4596;0.000180603;0.491211;2;2349;;
0.488892;11.4639;0.000178314;0.489014;2;2351;;
0.486755;11.4682;0.000175934;0.486908;2;2353;;
0.484619;11.4724;0.000173737;0.484772;2;2355;;
0.482483;11.4767;0.000171356;0.482666;2;2357;;
0.480347;11.481;0.000169128;0.48053;2;2359;;
0.47821;11.4853;0.000166901;0.478333;2;2361;;
0.476074;11.4895;0.000164612;0.476257;2;2363;;
0.473938;11.4938;0.000162445;0.47406;2;2365;;
0.471802;11.4981;0.000160065;0.471954;2;2367;;
0.469666;11.5023;0.000158173;0.469818;2;2369;;
0.467529;11.5066;0.000155975;0.467712;2;2371;;
0.465393;11.5109;0.000153809;0.465607;2;2373;;
0.463257;11.5152;0.000151581;0.46344;2;2375;;
0.461121;11.5194;0.000149475;0.461243;2;2377;;
0.458984;11.5237;0.000147369;0.459137;2;2379;;
0.456848;11.528;0.000145325;0.45697;2;2381;;
0.454712;11.5323;0.000143188;0.454865;2;2383;;
0.452576;11.5365;0.000141083;0.452698;2;2385;;
0.450439;11.5408;0.000139008;0.450623;2;2387;;
0.448303;11.5451;0.000136871;0.448425;2;2389;;
0.446167;11.5493;0.000134857;0.44632;2;2391;;
0.444031;11.5536;0.000132782;0.444275;2;2393;;
0.441895;11.5579;0.000130707;0.442047;2;2395;;
0.439758;11.5622;0.000128723;0.439911;2;2397;;
0.437622;11.5664;0.000126831;0.437805;2;2399;;
0.435486;11.5707;0.000124725;0.435638;2;2401;;
0.43335;11.575;0.000122833;0.433472;2;2403;;
0.431213;11.5792;0.000120667;0.431396;2;2405;;
0.429077;11.5835;0.000118744;0.42923;2;2407;;
0.426941;11.5878;0.000116821;0.427094;2;2409;;
0.424805;11.5921;0.000114868;0.424957;2;2411;;
0.422668;11.5963;0.000112915;0.422821;2;2413;;
0.420532;11.6006;0.000110992;0.420685;2;2415;;
0.418396;11.6049;0.000109039;0.418579;2;2417;;
0.41626;11.6091;0.000107178;0.416412;2;2419;;
0.414124;11.6134;0.000105347;0.414276;2;2421;;
0.411987;11.6177;0.000103394;0.412109;2;2423;;
0.409851;11.622;0.00010141;0.410034;2;2425;;
0.407715;11.6262;9.96094e-05;0.407867;2;2427;;
0.405579;11.6305;9.765625E-05;0.405701;2;2429;;
0.403442;11.6348;9.58557e-05;0.403625;2;2431;;
0.401306;11.6391;-8.3313e-08;0.401489;2;2433;;
0.39917;11.6433;9.20105e-05;0.3992;2;2435;;
0.397034;11.6476;9.021e-05;0.397003;2;2437;;
0.394897;11.6519;8.82874e-05;0.394928;2;2439;;
0.392761;11.6561;8.66394e-05;0.392731;2;2441;;
0.390625;11.6604;8.47168e-05;0.390625;2;2443;;
0.388489;11.6647;8.27637e-05;0.388458;2;2445;;
0.386353;11.669;8.10547e-05;0.386322;2;2447;;
0.384216;11.6732;7.93762e-05;0.384186;2;2449;;
0.38208;11.6775;7.74536e-05;0.382111;2;2451;;
0.379944;11.6818;7.57141e-05;0.380005;2;2453;;
0.377808;11.686;7.39441e-05;0.377838;2;2455;;
0.375671;11.6903;7.22351e-05;0.375671;2;2457;;
0.373535;11.6946;7.03735e-05;0.373566;2;2459;;
0.371399;11.6989;6.85425e-05;0.371399;2;2461;;
0.369263;11.7031;6.68945e-05;0.369293;2;2463;;
0.367126;11.7074;6.5155e-05;0.367157;2;2465;;
0.36499;11.7117;6.35071e-05;0.365021;2;2467;;
0.362854;11.7159;6.17981e-05;0.362854;2;2469;;
0.360718;11.7202;6.00586e-05;0.360718;2;2471;;
0.358582;11.7245;5.82581e-05;0.358612;2;2473;;
0.356445;11.7288;5.64575e-05;0.356445;2;2475;;
0.354309;11.733;5.50537e-05;0.35434;2;2477;;
0.352173;11.7373;5.32837e-05;0.352203;2;2479;;
0.350037;11.7416;5.14526e-05;0.350006;2;2481;;
0.3479;11.7459;4.97131e-05;0.34787;2;2483;;
0.345764;11.7501;4.81171e-05;0.345856;2;2485;;
0.343628;11.7544;4.64844e-05;0.343781;2;2487;;
0.341492;11.7587;4.46136e-05;0.341614;2;2489;;
0.339355;11.7629;4.3042e-05;0.339417;2;2491;;
0.337219;11.7672;4.14948e-05;0.33728;2;2493;;
0.335083;11.7715;3.97583e-05;0.335175;2;2495;;
0.332947;11.7758;3.81592e-05;0.333069;2;2497;;
0.330811;11.78;3.65784e-05;0.330933;2;2499;;
0.328674;11.7843;3.48633e-05;0.328766;2;2501;;
0.326538;11.7886;3.32092e-05;0.32663;2;2503;;
0.324402;11.7928;3.15643e-05;0.324554;2;2505;;
0.322266;11.7971;3.0014e-05;0.322357;2;2507;;
0.320129;11.8014;2.8418e-05;0.320251;2;2509;;
0.317993;11.8057;2.66266e-05;0.318115;2;2511;;
0.315857;11.8099;2.50763e-05;0.315948;2;2513;;
0.313721;11.8142;2.32849e-05;0.313843;2;2515;;
0.311584;11.8185;2.17133e-05;0.311615;2;2517;;
0.309448;11.8227;1.99554e-05;0.309509;2;2519;;
0.307312;11.827;1.85181e-05;0.307373;2;2521;;
0.305176;11.8313;1.67786e-05;0.305237;2;2523;;
0.30304;11.8356;1.52679e-05;0.303131;2;2525;;
0.300903;11.8398;1.35834e-05;0.300964;2;2527;;
0.298767;11.8441;1.18713e-05;0.298828;2;2529;;
0.296631;11.8484;1.01044e-05;0.296692;2;2531;;
0.294495;11.8527;8.5144e-06;0.294556;2;2533;;
0.292358;11.8569;6.90613e-06;0.292419;2;2535;;
0.290222;11.8612;5.4718e-06;0.290039;2;2537;;
0.288086;11.8655;3.59222e-06;0.288116;2;2539;;
0.28595;11.8697;1.82617e-06;0.286102;2;2541;;
0.283813;11.874;2.01721e-07;0.283905;2;2543;;
0.281677;11.8783;-1.41235e-06;0.281769;2;2545;;
0.279541;11.8826;-3.12958e-06;0.279633;2;2547;;
0.277405;11.8868;-4.7699e-06;0.277557;2;2549;;
0.275269;11.8911;-6.63147e-06;0.275421;2;2551;;
0.273132;11.8954;-8.17871e-06;0.273254;2;2553;;
0.270996;11.8996;-9.80835e-06;0.271118;2;2555;;
0.26886;11.9039;-1.19629e-05;0.269012;2;2557;;
0.266724;11.9082;-1.33667e-05;0.266937;2;2559;;
0.264587;11.9125;-1.52222e-05;0.264709;2;2561;;
0.262451;11.9167;-1.69189e-05;0.262634;2;2563;;
0.260315;11.921;-1.89392e-05;0.260498;2;2565;;
0.258179;11.9253;-2.07184e-05;0.258362;2;2567;;
0.256042;11.9295;-2.25708e-05;0.256256;2;2569;;
0.253906;11.9338;-2.44446e-05;0.254181;2;2571;;
0.25177;11.9381;-2.62421e-05;0.252075;2;2573;;
0.249634;11.9424;-2.80579e-05;0.249969;2;2575;;
0.247498;11.9466;-3.02887e-05;0.247833;2;2577;;
0.245361;11.9509;-3.21106e-05;0.245453;2;2579;;
0.243225;11.9552;-3.42834e-05;0.243347;2;2581;;
0.241089;11.9595;-3.61633e-05;0.241211;2;2583;;
0.238953;11.9637;-3.82294e-05;0.239044;2;2585;;
0.236816;11.968;-4.02954e-05;0.236938;2;2587;;
0.23468;11.9723;-4.25964e-05;0.234772;2;2589;;
0.232544;11.9765;-4.47876e-05;0.232635;2;2591;;
0.230408;11.9808;-4.68689e-05;0.230499;2;2593;;
0.228271;11.9851;-4.90753e-05;0.228394;2;2595;;
0.226135;11.9894;-5.14221e-05;0.226227;2;2597;;
0.223999;11.9936;-5.35278e-05;0.224121;2;2599;;
0.221863;11.9979;-5.58777e-05;0.221924;2;2601;;
0.219727;12.0022;-5.83191e-05;0.219757;2;2603;;
0.21759;12.0064;-6.07605e-05;0.217682;2;2605;;
0.215454;12.0107;-6.3324e-05;0.215546;2;2607;;
0.213318;12.015;-6.61316e-05;0.213409;2;2609;;
0.211182;12.0193;-6.86646e-05;0.211243;2;2611;;
0.209045;12.0235;-7.11365e-05;0.209137;2;2613;;
0.206909;12.0278;-7.3822e-05;0.207001;2;2615;;
0.204773;12.0321;-7.6416e-05;0.204834;2;2617;;
0.202637;12.0363;-7.91931e-05;0.202759;2;2619;;
0.2005;12.0406;-8.19702e-05;0.200592;2;2621;;
0.198364;12.0449;-8.47778e-05;0.198517;2;2623;;
0.196228;12.0492;-8.75549e-05;0.19632;2;2625;;
0.194092;12.0534;-9.06067e-05;0.194153;2;2627;;
0.191956;12.0577;-9.32617e-05;0.192108;2;2629;;
0.189819;12.062;-9.62524e-05;0.189941;2;2631;;
0.187683;12.0663;-9.90601e-05;0.187744;2;2633;;
0.185547;12.0705;-0.000102295;0.185699;2;2635;;
0.183411;12.0748;-0.000105255;0.183563;2;2637;;
0.181274;12.0791;-0.000108307;0.181366;2;2639;;
0.179138;12.0833;-0.00011142;0.179291;2;2641;;
0.177002;12.0876;-0.00011441;0.177124;2;2643;;
0.174866;12.0919;-0.000117493;0.175018;2;2645;;
0.172729;12.0962;-0.000120392;0.172852;2;2647;;
0.170593;12.1004;-0.00012384;0.170776;2;2649;;
0.168457;12.1047;-0.000127197;0.168579;2;2651;;
0.166321;12.109;-0.000130432;0.166412;2;2653;;
0.164185;12.1132;-0.000133759;0.164337;2;2655;;
0.162048;12.1175;-0.000136963;0.16217;2;2657;;
0.159912;12.1218;-0.00014032;0.160095;2;2659;;
0.157776;12.1261;-0.000143646;0.157928;2;2661;;
0.15564;12.1303;-0.000147034;0.155792;2;2663;;
0.153503;12.1346;-0.000150208;0.153656;2;2665;;
0.151367;12.1389;-0.000153687;0.15152;2;2667;;
0.149231;12.1431;-0.000156891;0.149353;2;2669;;
0.147095;12.1474;-0.000160339;0.147247;2;2671;;
0.144958;12.1517;-0.000163574;0.145142;2;2673;;
0.142822;12.156;-0.000167175;0.143005;2;2675;;
0.140686;12.1602;-0.000170624;0.140808;2;2677;;
0.13855;12.1645;-0.000174042;0.138733;2;2679;;
0.136414;12.1688;-0.000177399;0.136597;2;2681;;
0.134277;12.1731;-0.000180847;0.13446;2;2683;;
0.132141;12.1773;-0.000184174;0.132324;2;2685;;
0.130005;12.1816;-0.000187561;0.130127;2;2687;;
0.127869;12.1859;-0.000190765;0.128082;2;2689;;
0.125732;12.1901;-0.000194122;0.125916;2;2691;;
0.123596;12.1944;-0.000197266;0.123749;2;2693;;
0.12146;12.1987;-0.000200317;0.121674;2;2695;;
0.119324;12.203;-0.000203522;0.119537;2;2697;;
0.1171875;12.2072;-0.000206787;0.117371;2;2699;;
0.115051;12.2115;-0.000210236;0.115234;2;2701;;
0.112915;12.2158;-0.000213287;0.113159;2;2703;;
0.110779;12.22;-0.000216522;0.110962;2;2705;;
0.108643;12.2243;-0.000219849;0.108856;2;2707;;
0.106506;12.2286;-0.000223053;0.10672;2;2709;;
0.10437;12.2329;-0.000226318;0.104614;2;2711;;
0.102234;12.2371;-0.000229645;0.102448;2;2713;;
0.100098;12.2414;-0.000232697;0.100372;2;2715;;
0.0979614;12.2457;-0.000235687;0.0981445;2;2717;;
0.0958252;12.2499;-0.000238983;0.0960999;2;2719;;
0.093689;12.2542;-0.000242065;0.0938721;2;2721;;
0.0915527;12.2585;-0.000245117;0.0917664;2;2723;;
0.0894165;12.2628;-0.000248383;0.0897217;2;2725;;
0.0872803;12.267;-0.000251465;0.0874939;2;2727;;
0.085144;12.2713;-0.000254486;0.0853882;2;2729;;
0.0830078;12.2756;-0.000257721;0.0832214;2;2731;;
0.0808716;12.2799;-0.000260742;0.0810852;2;2733;;
0.0787354;12.2841;-0.000263916;0.0789795;2;2735;;
0.0765991;12.2884;-0.000266876;0.0769043;2;2737;;
0.0744629;12.2927;-0.000270172;0.0747375;2;2739;;
0.0723267;12.2969;-0.000273254;0.0725708;2;2741;;
0.0701904;12.3012;-0.000276367;0.0704956;2;2743;;
0.0680542;12.3055;-0.000279205;0.0682983;2;2745;;
0.065918;12.3098;-0.000282288;0.0662231;2;2747;;
0.0637817;12.314;-0.000285034;0.0640869;2;2749;;
0.0616455;12.3183;-0.000288086;0.0619202;2;2751;;
0.0595093;12.3226;-0.000291107;0.0597839;2;2753;;
0.057373;12.3268;-0.000293762;0.0576477;2;2755;;
0.0552368;12.3311;-0.000297089;0.055542;2;2757;;
0.0531006;12.3354;-0.000299957;0.0534363;2;2759;;
0.0509644;12.3397;-0.00964844;0.0521851;2;2761;;
0.0488281;12.3439;-0.000306122;0.0489075;2;2763;;
0.0466919;12.3482;-0.000308929;0.0467499;2;2765;;
0.0445557;12.3525;-0.000311829;0.0446106;2;2767;;
0.0424194;12.3567;-0.000314789;0.0424805;2;2769;;
0.0402832;12.361;-0.000317413;0.0403412;2;2771;;
0.038147;12.3653;-0.000320404;0.0381897;2;2773;;
0.0360107;12.3696;-0.000323151;0.0360626;2;2775;;
0.0338745;12.3738;-0.00032605;0.0339233;2;2777;;
0.0317383;12.3781;-0.000328705;0.0317841;2;2779;;
0.0296021;12.3824;-0.000331451;0.0296448;2;2781;;
0.0274658;12.3867;-0.000334229;0.0275177;2;2783;;
0.0253296;12.3909;-0.000336853;0.0253845;2;2785;;
0.0231934;12.3952;-0.000339722;0.0232422;2;2787;;
0.0210571;12.3995;-0.000342224;0.02109375;2;2789;;
0.0189209;12.4037;-0.000345184;0.0189606;2;2791;;
0.0167847;12.408;-0.000347931;0.0168243;2;2793;;
0.0146484;12.4123;-0.000350586;0.0146851;2;2795;;
0.0125122;12.4166;-0.000352814;0.0125397;2;2797;;
0.010376;12.4208;-0.000355652;0.0104126;2;2799;;
0.00823975;12.4251;-0.000358276;0.008255;2;2801;;
0.00610352;12.4294;-0.000360962;0.00612183;2;2803;;
0.00396729;12.4336;-0.000363647;0.0039856;2;2805;;
0.00183105;12.4379;-0.00036618;0.00184326;2;2807;;
-0.000305176;12.4422;-0.000368622;-0.000286865;2;2809;;
-0.00244141;12.4465;-0.000371124;-0.00242615;2;2811;;
-0.00457764;12.4507;-0.000373566;-0.00456238;2;2813;;
-0.00671387;12.455;-0.00037616;-0.00668945;2;2815;;
-0.0088501;12.4593;-0.000378571;-0.00884399;2;2817;;
-0.0109863;12.4635;-0.000381073;-0.0109894;2;2819;;
-0.0131226;12.4678;-0.000383423;-0.0130951;2;2821;;
-0.0152588;12.4721;-0.000385864;-0.0152344;2;2823;;
-0.017395;12.4764;-0.000388306;-0.0173645;2;2825;;
-0.01953125;12.4806;-0.000390747;-0.0195129;2;2827;;
-0.0216675;12.4849;-0.000393188;-0.0216522;2;2829;;
-0.0238037;12.4892;-0.000395599;-0.0237762;2;2831;;
-0.0259399;12.4935;-0.000397919;-0.0259125;2;2833;;
-0.0280762;12.4977;-0.000400024;-0.0280457;2;2835;;
-0.0302124;12.502;-0.000402405;-0.0301666;2;2837;;
-0.0323486;12.5063;-0.000404388;-0.0323273;2;2839;;
-0.0344849;12.5105;-0.000406738;-0.0344543;2;2841;;
-0.0366211;12.5148;-0.000408783;-0.0365875;2;2843;;
-0.0387573;12.5191;-0.00041098;-0.038739;2;2845;;
-0.0408936;12.5234;-0.000413269;-0.0408722;2;2847;;
-0.0430298;12.5276;-0.000415222;-0.0429962;2;2849;;
-0.045166;12.5319;-0.000417633;-0.0451385;2;2851;;
-0.0473022;12.5362;-0.000419678;-0.0472687;2;2853;;
-0.0494385;12.5404;-0.0004216;-0.049411;2;2855;;
-0.0515747;12.5447;-0.00042395;-0.0514832;2;2857;;
-0.0537109;12.549;-0.000425903;-0.0536499;2;2859;;
-0.0558472;12.5533;-0.000427582;-0.0557861;2;2861;;
-0.0579834;12.5575;-0.000429871;-0.0578613;2;2863;;
-0.0601196;12.5618;-0.00043158;-0.0600281;2;2865;;
-0.0622559;12.5661;-0.000433228;-0.0621643;2;2867;;
-0.0643921;12.5703;-0.000435364;-0.0643005;2;2869;;
-0.0665283;12.5746;-0.000437225;-0.0664673;2;2871;;
-0.0686646;12.5789;-0.000438782;-0.0686035;2;2873;;
-0.0708008;12.5832;-0.000440704;-0.0707092;2;2875;;
-0.072937;12.5874;-0.000442688;-0.072876;2;2877;;
-0.0750732;12.5917;-0.000444153;-0.0749817;2;2879;;
-0.0772095;12.596;-0.000446106;-0.077179;2;2881;;
-0.0793457;12.6003;-0.000447754;-0.0792542;2;2883;;
-0.0814819;12.6045;-0.000449493;-0.0814514;2;2885;;
-0.0836182;12.6088;-0.000451111;-0.0835876;2;2887;;
-0.0857544;12.6131;-0.000452484;-0.0856934;2;2889;;
-0.0878906;12.6173;-0.000454163;-0.0877686;2;2891;;
-0.0900269;12.6216;-0.00045575;-0.0899963;2;2893;;
-0.0921631;12.6259;-0.000457581;-0.092041;2;2895;;
-0.0942993;12.6302;-0.000458923;-0.0942078;2;2897;;
-0.0964355;12.6344;-0.000460449;-0.0963135;2;2899;;
-0.0985718;12.6387;-0.000461945;-0.0985107;2;2901;;
-0.100708;12.643;-0.000463104;-0.100586;2;2903;;
-0.102844;12.6472;-0.000464508;-0.102753;2;2905;;
-0.10498;12.6515;-0.00046582;-0.104889;2;2907;;
-0.107117;12.6558;-0.000467346;-0.107025;2;2909;;
-0.109253;12.6601;-0.000468475;-0.109161;2;2911;;
-0.111389;12.6643;-0.000469971;-0.111298;2;2913;;
-0.113525;12.6686;-0.000470947;-0.113434;2;2915;;
-0.115662;12.6729;-0.000472198;-0.115509;2;2917;;
-0.117798;12.6771;-0.00047348;-0.117676;2;2919;;
-0.119934;12.6814;-0.000474731;-0.119781;2;2921;;
-0.12207;12.6857;-0.000475983;-0.121979;2;2923;;
-0.124207;12.69;-0.00047702;-0.124084;2;2925;;
-0.126343;12.6942;-0.000477966;-0.126221;2;2927;;
-0.128479;12.6985;-0.000479095;-0.128357;2;2929;;
-0.130615;12.7028;-0.00047995;-0.130493;2;2931;;
-0.132751;12.7071;-0.000481354;-0.13266;2;2933;;
-0.134888;12.7113;-0.000482361;-0.134766;2;2935;;
-0.137024;12.7156;-0.000483063;-0.136932;2;2937;;
-0.13916;12.7199;-0.000483917;-0.139038;2;2939;;
-0.141296;12.7241;-0.000485229;-0.141174;2;2941;;
-0.143433;12.7284;-0.000485779;-0.14328;2;2943;;
-0.145569;12.7327;-0.000486481;-0.145416;2;2945;;
-0.147705;12.737;-0.000487549;-0.147552;2;2947;;
-0.149841;12.7412;-0.00048819;-0.149719;2;2949;;
-0.151978;12.7455;-0.000489105;-0.151855;2;2951;;
-0.154114;12.7498;-0.000489716;-0.153992;2;2953;;
-0.15625;12.754;-0.000490448;-0.156097;2;2955;;
-0.158386;12.7583;-0.000491272;-0.158264;2;2957;;
-0.160522;12.7626;-0.000491913;-0.16037;2;2959;;
-0.162659;12.7669;-0.000492676;-0.162506;2;2961;;
-0.164795;12.7711;-0.000493042;-0.164673;2;2963;;
-0.166931;12.7754;-0.000493622;-0.166779;2;2965;;
-0.169067;12.7797;-0.000494354;-0.168915;2;2967;;
-0.171204;12.7839;-0.000494934;-0.171021;2;2969;;
-0.17334;12.7882;-0.000495422;-0.173218;2;2971;;
-0.175476;12.7925;-0.000495819;-0.175354;2;2973;;
-0.177612;12.7968;-0.000496521;-0.17749;2;2975;;
-0.179749;12.801;-0.00049704;-0.179596;2;2977;;
-0.181885;12.8053;-0.00049765;-0.181702;2;2979;;
-0.184021;12.8096;-0.000498199;-0.183868;2;2981;;
-0.186157;12.8139;-0.000498596;-0.185974;2;2983;;
-0.188293;12.8181;-0.000498932;-0.188141;2;2985;;
-0.19043;12.8224;-0.000499359;-0.190308;2;2987;;
-0.192566;12.8267;-0.000499573;-0.192444;2;2989;;
-0.194702;12.8309;-0.000499878;-0.19458;2;2991;;
-0.196838;12.8352;-0.000499878;-0.196686;2;2993;;
-0.198975;12.8395;-0.000500488;-0.198822;2;2995;;
-0.198975;12.8438;-0.000491547;-0.198792;2;2997;;
-0.197906;12.8459;-0.000484985;-0.197723;2;2998;;